"Time (s)","Linear Acceleration x (m/s^2)","Linear Acceleration y (m/s^2)","Linear Acceleration z (m/s^2)","Absolute acceleration (m/s^2)"
0.000000000E0,3.119213879E-1,8.167982101E-2,2.325530052E-1,3.975518150E-1
1.583069200E-2,2.617395520E-1,1.245527267E-1,7.555961609E-3,2.899621827E-1
2.963938500E-2,2.542334795E-1,1.214408875E-1,9.745597839E-3,2.819175907E-1
4.063784600E-2,1.843601614E-1,1.019139290E-1,2.677011490E-2,2.123481978E-1
4.964800000E-2,1.783130020E-1,1.003866196E-1,2.774715424E-2,2.065015851E-1
5.957838500E-2,4.753294587E-1,1.782894135E-2,-1.032433510E-1,4.867393091E-1
6.954153800E-2,5.244271755E-1,-3.075170517E-2,-1.172065735E-1,5.382442853E-1
8.171369200E-2,5.187693834E-1,-3.313970566E-2,-1.154956818E-1,5.325027378E-1
8.963769200E-2,3.117493391E-1,4.204273224E-2,-5.123629570E-1,6.012246182E-1
9.952138500E-2,3.087585568E-1,3.835439682E-2,-5.094723701E-1,5.969631497E-1
1.095320000E-1,1.185018718E-1,2.067136765E-2,-4.875531197E-1,5.021733202E-1
1.195432310E-1,1.168831885E-1,1.698684692E-2,-4.846024513E-1,4.987883003E-1
1.295389230E-1,1.982839406E-1,-5.463218689E-2,-4.933409691E-1,5.344965002E-1
1.402612310E-1,-7.102686167E-2,-1.669497490E-1,-6.731462479E-2,1.935156130E-1
1.495703080E-1,-7.422840595E-2,-1.660766602E-1,-6.815576553E-2,1.942589037E-1
1.595303850E-1,2.882179022E-1,-2.664637566E-1,2.956056595E-1,4.913809099E-1
1.695332310E-1,2.852301002E-1,-2.619471550E-1,2.917952538E-1,4.848886389E-1
1.795298460E-1,2.919178009E-1,-3.247261047E-1,3.492965698E-1,5.591700450E-1
1.895375380E-1,8.581155539E-2,-3.376421928E-1,6.618137360E-1,7.479059396E-1
1.998980770E-1,9.008762240E-2,-3.349294662E-1,6.597661972E-1,7.453757187E-1
2.095306920E-1,-8.538991213E-3,-2.584562302E-1,3.349223137E-1,4.231376768E-1
2.204550770E-1,-6.854027510E-3,-2.574038506E-1,3.341317177E-1,4.218385055E-1
2.295313850E-1,2.169665396E-1,-3.057379723E-1,2.556219101E-1,4.537540610E-1
2.395259230E-1,2.171984315E-1,-3.054380417E-1,2.553873062E-1,4.535308502E-1
2.497194610E-1,2.715968192E-1,-3.633198738E-1,4.294934273E-1,6.246845340E-1
2.595268460E-1,2.939564288E-1,-3.805122375E-1,3.250355721E-1,5.803861370E-1
2.696768460E-1,2.928698361E-1,-3.779277802E-1,3.228902817E-1,5.769404492E-1
2.795549230E-1,4.247968197E-1,-3.480353355E-1,3.574576378E-1,6.552533064E-1
2.897136920E-1,4.219205976E-1,-3.447132111E-1,3.546452522E-1,6.500903348E-1
2.995586150E-1,4.059664309E-1,-3.016228676E-1,1.190228462E-1,5.195686049E-1
3.096369230E-1,4.028381705E-1,-2.984662056E-1,1.163434982E-1,5.146809469E-1
3.195293080E-1,4.379344583E-1,-1.893887520E-1,5.674028397E-2,4.804936513E-1
3.295156920E-1,5.666923523E-1,-2.111635208E-1,7.600736618E-2,6.095140477E-1
3.395341540E-1,5.642551184E-1,-2.067513466E-1,7.234954834E-2,6.052804433E-1
3.495687690E-1,5.959637165E-1,-1.009964943E-1,2.342462540E-2,6.049146686E-1
3.600891540E-1,5.938466787E-1,-9.539556503E-2,1.883029938E-2,6.017547439E-1
3.702390770E-1,5.967850685E-1,-2.388572693E-2,-4.487514496E-2,5.989463453E-1
3.798055380E-1,8.030992150E-1,-3.684377670E-2,-1.702690125E-2,8.041241996E-1
3.898453850E-1,7.996520996E-1,-3.106403351E-2,-2.179145813E-2,8.005518860E-1
3.995365380E-1,8.612439632E-1,-6.580877304E-2,2.280745506E-1,8.933588078E-1
4.095485380E-1,8.588249087E-1,-5.906105042E-2,2.225899696E-1,8.891651849E-1
4.195174610E-1,6.983878613E-1,-3.904819489E-2,1.777029037E-2,6.997043300E-1
4.295730770E-1,6.995851398E-1,-3.314352036E-2,1.310157776E-2,7.004923355E-1
4.395312310E-1,5.284185410E-1,-6.678104401E-3,-1.415300369E-2,5.286502237E-1
4.508946920E-1,8.095420599E-1,-3.637313843E-2,7.970333099E-2,8.142689807E-1
4.595290000E-1,8.103127480E-1,-2.969837189E-2,7.442998886E-2,8.142656606E-1
4.695674620E-1,1.089667201E0,2.568626404E-2,-3.865385056E-2,1.090655085E0
4.795405380E-1,1.088357210E0,3.215932846E-2,-4.382276535E-2,1.089713758E0
4.895803080E-1,1.088083506E0,1.065907478E-1,-1.051578522E-1,1.098337597E0
4.995377690E-1,1.086915851E0,1.114382744E-1,-1.090226173E-1,1.098039383E0
5.095175380E-1,8.806067705E-1,1.656484604E-1,7.717609406E-3,8.960844035E-1
5.195844620E-1,7.806154490E-1,3.172378540E-1,-2.860374451E-1,8.898414213E-1
5.297571540E-1,7.858752012E-1,3.180313110E-1,-2.864747047E-1,8.948807201E-1
5.395975380E-1,9.754981995E-1,3.381714821E-1,-2.664551735E-1,1.066280942E0
5.500128460E-1,9.793810844E-1,3.380079269E-1,-2.661843300E-1,1.069715273E0
5.605498460E-1,8.482404351E-1,3.601393700E-1,-9.096860886E-2,9.260062037E-1
5.695523850E-1,7.818449736E-1,4.449214935E-1,-2.123098373E-1,9.242900871E-1
5.796316920E-1,7.818483710E-1,4.481587410E-1,-2.148542404E-1,9.264423765E-1
5.895613850E-1,8.505980372E-1,4.214587212E-1,-2.044544220E-1,9.710541104E-1
5.998446150E-1,8.490264416E-1,4.254422188E-1,-2.076368332E-1,9.720905485E-1
6.095263080E-1,8.548365235E-1,3.475213051E-1,-1.658768654E-1,9.375668904E-1
6.195301540E-1,8.541885614E-1,3.516020775E-1,-1.690945625E-1,9.390713980E-1
6.295286150E-1,6.641714573E-1,4.178061485E-1,-5.778517723E-1,9.744733825E-1
6.406356150E-1,3.477282524E-1,4.615821838E-1,-6.951713562E-1,9.040112081E-1
6.505884620E-1,3.542187810E-1,4.615054131E-1,-6.948595047E-1,9.062493710E-1
6.595538460E-1,5.365778208E-1,5.303158760E-1,-9.892802238E-1,1.244116573E0
6.695189230E-1,5.401969552E-1,5.325942039E-1,-9.909152985E-1,1.247951307E0
6.796581540E-1,7.506208420E-1,4.777941704E-1,-5.319581032E-1,1.036676585E0
6.899426150E-1,8.255228996E-1,3.647532463E-1,-1.440634727E-1,9.139405192E-1
6.995846150E-1,8.227406144E-1,3.789606094E-1,-1.552109718E-1,9.190232358E-1
7.096298460E-1,7.980396748E-1,4.653201103E-1,-4.351119995E-1,1.021132988E0
7.195221540E-1,7.987747192E-1,4.755754471E-1,-4.429988861E-1,1.029786906E0
7.305113850E-1,7.585246563E-1,5.524940491E-1,-7.747588158E-1,1.216906139E0
7.402440770E-1,7.607477903E-1,5.573353767E-1,-7.783908844E-1,1.222805091E0
7.495370000E-1,1.014379978E0,4.492878914E-1,-9.988551140E-1,1.492828821E0
7.595293850E-1,5.788216591E-1,3.690271378E-1,-2.123289108E-1,7.185395659E-1
7.705353080E-1,5.849696398E-1,3.796582222E-1,-2.201976776E-1,7.313117409E-1
7.801180000E-1,9.500809908E-1,3.577990532E-1,-4.041900635E-1,1.092723048E0
7.895445380E-1,9.558578730E-1,3.693594933E-1,-4.127225876E-1,1.104731027E0
7.997310770E-1,1.101921797E0,3.571681976E-1,-5.957303047E-1,1.302572594E0
8.104518460E-1,7.975988388E-1,4.694128036E-1,-4.048399925E-1,1.010152319E0
8.207322310E-1,6.681893468E-1,4.785051346E-1,-4.114894867E-1,9.191124875E-1
8.301760770E-1,1.147613883E0,5.152215958E-1,-8.481831551E-1,1.517196619E0
8.395283850E-1,1.153189182E0,5.215730667E-1,-8.526997566E-1,1.526099810E0
8.496459230E-1,1.088361263E0,5.153007507E-1,-6.903657913E-1,1.388045399E0
8.624416920E-1,7.796610594E-1,5.984086990E-1,-2.661499977E-1,1.018233843E0
8.695318460E-1,7.939307690E-1,6.086139679E-1,-2.730712891E-1,1.036969120E0
8.795481540E-1,8.081493378E-1,6.187934875E-1,-2.799305916E-1,1.055638133E0
8.895401540E-1,1.003769279E0,7.371039391E-1,-6.274981499E-1,1.394499519E0
8.995638460E-1,9.721691608E-1,7.047042847E-1,-4.262614250E-1,1.274134926E0
9.095732310E-1,9.840421677E-1,7.127332687E-1,-4.315452576E-1,1.289402578E0
9.195399230E-1,1.120462656E0,7.946925163E-1,-3.567185402E-1,1.419232495E0
9.295264620E-1,1.134766102E0,8.031435013E-1,-3.621110916E-1,1.436613390E0
9.397054620E-1,8.901553154E-1,1.007669926E0,-4.076585770E-1,1.404977110E0
9.497030770E-1,7.456176877E-1,1.151579380E0,-2.576441765E-1,1.395872962E0
9.595323850E-1,7.621352077E-1,1.159407139E0,-2.623157501E-1,1.412049766E0
9.695173850E-1,7.700605392E-1,1.167020798E0,4.244375229E-2,1.398832459E0
9.795933850E-1,7.852748632E-1,1.177087784E0,3.614234924E-2,1.415449939E0
9.896992310E-1,8.106424809E-1,1.219139099E0,4.250402451E-1,1.524500110E0
9.995274620E-1,8.229772449E-1,1.230834961E0,4.174427986E-1,1.538344804E0
1.009558308E0,7.010159492E-1,1.355637550E0,1.056365013E0,1.856093632E0
1.019517154E0,6.725976467E-1,1.480678082E0,1.445115566E0,2.175581342E0
1.029525615E0,6.854076385E-1,1.488283634E0,1.440610886E0,2.181772566E0
1.040153615E0,6.081466675E-1,1.602757931E0,1.204171658E0,2.094923563E0
1.049531615E0,6.223255992E-1,1.603244305E0,1.204937458E0,2.099894219E0
1.060695769E0,5.231223106E-1,1.756005764E0,1.053936481E0,2.113763303E0
1.069602385E0,4.970027208E-1,1.469485283E0,1.203367233E0,1.963285868E0
1.080338077E0,5.058245063E-1,1.474072933E0,1.200810432E0,1.967408229E0
1.089518154E0,2.911692858E-2,1.052367687E0,2.202105045E0,2.440817932E0
1.099553231E0,3.147625923E-2,1.070802689E0,2.189141750E0,2.437201419E0
1.109618308E0,-2.766518593E-1,5.925450325E-1,2.742940426E0,2.819817024E0
1.119535692E0,-2.794460654E-1,6.216235161E-1,2.722208023E0,2.806229217E0
1.129598923E0,-6.481279731E-1,3.066945076E-1,2.359606743E0,2.466145854E0
1.139530077E0,-1.196189404E0,-6.396245956E-2,1.867540359E0,2.218708471E0
1.149525846E0,-1.192914963E0,-4.823207855E-2,1.856938362E0,2.207621463E0
1.159545846E0,-1.666050673E0,-4.184241295E-1,1.715636253E0,2.427799693E0
1.169547615E0,-1.657959700E0,-4.058032036E-1,1.707671165E0,2.414466280E0
1.179630154E0,-1.730545759E0,-7.202544212E-1,1.506416321E0,2.404754704E0
1.189560923E0,-1.724243879E0,-7.105827332E-1,1.500370979E0,2.393545039E0
1.199641308E0,-1.277994752E0,-8.694391251E-1,1.992177963E-1,1.558487314E0
1.210144769E0,-1.245938301E0,-9.419717789E-1,-5.608034134E-1,1.659570291E0
1.220471538E0,-1.257106543E0,-9.498987198E-1,-5.563545227E-1,1.670974205E0
1.229531538E0,-8.998000622E-1,-8.747439384E-1,-7.083783150E-1,1.441047170E0
1.239542615E0,-9.117307067E-1,-8.835358620E-1,-7.033429146E-1,1.451406131E0
1.249530154E0,-8.738164902E-1,-8.826160431E-1,-5.456166267E-1,1.356563246E0
1.259629846E0,-8.958869576E-1,-7.621126175E-1,-7.535557747E-1,1.396880592E0
1.269839538E0,-8.955252767E-1,-7.695074081E-1,-7.484240532E-1,1.397943395E0
1.279538615E0,-9.674408436E-1,-6.976103783E-1,-7.804260254E-1,1.425365499E0
1.289574769E0,-9.630041122E-1,-7.049174309E-1,-7.750024796E-1,1.422994852E0
1.299653308E0,-1.093420267E0,-6.449971199E-1,-9.034652710E-1,1.558152323E0
1.309529462E0,-1.083520412E0,-6.511645317E-1,-8.983507156E-1,1.550827437E0
1.319710077E0,-1.128516078E0,-5.517640114E-1,-1.102734566E0,1.671530911E0
1.329544385E0,-1.042045951E0,-5.395216942E-1,-8.665513992E-1,1.458716816E0
1.339527231E0,-1.027017474E0,-5.417881012E-1,-8.636398315E-1,1.447125771E0
1.349529077E0,-7.194617391E-1,-5.017824173E-1,-6.776041985E-1,1.108403464E0
1.359525462E0,-7.080161572E-1,-5.000238419E-1,-6.777863503E-1,1.100320434E0
1.369534615E0,-4.650234580E-1,-6.072840691E-1,-1.301693916E-1,7.758768121E-1
1.379578846E0,-4.551781416E-1,-6.014218330E-1,-1.333317757E-1,7.659456405E-1
1.389573462E0,-4.308491945E-1,-5.830869675E-1,-3.044791222E-1,7.863389701E-1
1.399614308E0,-4.919148684E-1,-3.746185303E-1,-8.261590004E-1,1.031919558E0
1.409528615E0,-4.789084792E-1,-3.777866364E-1,-8.226675987E-1,1.024137711E0
1.419522000E0,-3.514533043E-1,-2.734708786E-1,-6.905460358E-1,8.216809442E-1
1.429519769E0,-3.393301368E-1,-2.754516602E-1,-6.879291534E-1,8.150245880E-1
1.440014692E0,-3.361076117E-2,-2.146139145E-1,-3.620195389E-1,4.221930389E-1
1.449810231E0,1.206874847E-3,-6.480121613E-2,-3.830881119E-1,3.885320522E-1
1.459849308E0,1.211225986E-3,-6.287193298E-2,-3.844337463E-1,3.895428761E-1
1.469824462E0,-6.536096334E-2,3.411245346E-2,-2.106814384E-1,2.232092819E-1
1.479526615E0,-6.795120239E-2,3.685903549E-2,-2.128653526E-1,2.264676859E-1
1.489527846E0,1.417143345E-1,5.510568619E-2,-2.436776161E-1,2.872252946E-1
1.499562231E0,1.351656318E-1,5.882358551E-2,-2.469372749E-1,2.875899511E-1
1.511480923E0,-7.715028524E-2,1.070837975E-1,-1.312508583E-1,1.861340753E-1
1.519715923E0,1.656402349E-1,1.155104637E-1,-4.591689110E-1,5.016128422E-1
1.529530923E0,1.548746824E-1,1.152901649E-1,-4.600825310E-1,4.989528281E-1
1.539526000E0,1.679341197E-1,1.631245613E-1,-6.465373039E-1,6.876205177E-1
1.549519692E0,1.533271074E-1,1.616749763E-1,-6.469321251E-1,6.842288903E-1
1.559572615E0,8.666658401E-2,2.411007881E-1,-5.369133949E-1,5.949089682E-1
1.569952846E0,1.570980549E-1,2.696447372E-1,-4.658198357E-1,5.606926096E-1
1.579596692E0,1.433981657E-1,2.713513374E-1,-4.682421684E-1,5.598618674E-1
1.589642000E0,-1.396536827E-3,2.798981667E-1,-2.862310410E-1,4.003412829E-1
1.599524308E0,-1.334398985E-2,2.827816010E-1,-2.892694473E-1,4.047472162E-1
1.609572923E0,-9.900105000E-2,4.779434204E-1,-4.303765297E-1,6.507342609E-1
1.621714385E0,4.210621119E-2,6.009931564E-1,-8.324136734E-1,1.027559356E0
1.629648308E0,-3.842377663E-2,5.945072174E-1,-8.288621902E-1,1.020748622E0
1.639863923E0,-1.899070144E-1,6.635961533E-1,-8.689060211E-1,1.109694644E0
1.649539923E0,-1.976937652E-1,6.552700996E-1,-8.637285233E-1,1.102038425E0
1.659641462E0,-3.367962837E-1,6.959471703E-1,-5.151004791E-1,9.290332094E-1
1.670338308E0,-3.405132890E-1,6.893315315E-1,-5.107660294E-1,9.230434427E-1
1.679530769E0,-4.969512224E-1,7.770562172E-1,-4.598603249E-1,1.030654356E0
1.689548692E0,-4.992747307E-1,7.694101334E-1,-4.546732903E-1,1.023716275E0
1.699651846E0,-4.360841513E-1,8.173360825E-1,-3.156633377E-1,9.786986265E-1
1.709644462E0,-6.434420943E-1,7.544717789E-1,2.859158516E-1,1.031985110E0
1.719587769E0,-6.498413086E-1,7.490863800E-1,2.892279625E-1,1.032994165E0
1.729591231E0,-4.324237108E-1,7.561244965E-1,1.715011597E-1,8.877652660E-1
1.739588385E0,-4.415161014E-1,7.479352951E-1,1.766252518E-1,8.863070309E-1
1.749543538E0,-3.443598747E-1,6.758251190E-1,6.198778152E-1,9.795773684E-1
1.759524539E0,-3.563660979E-1,6.678791046E-1,6.246643066E-1,9.814605393E-1
1.769578539E0,-1.017565727E-1,6.300706863E-1,1.029006958E0,1.210866958E0
1.780299385E0,-5.678451061E-2,7.278933525E-1,1.375744820E0,1.557474565E0
1.789534231E0,-7.359164953E-2,7.198371887E-1,1.380388260E0,1.558541965E0
1.799519615E0,4.316816032E-1,9.055738449E-1,1.466070175E0,1.776450043E0
1.809524154E0,4.095342159E-1,8.916831017E-1,1.474698544E0,1.771313869E0
1.819527154E0,6.437197328E-1,1.243395805E0,1.002620697E0,1.722108151E0
1.829610769E0,1.099754095E0,1.548870564E0,-2.787318230E-1,1.919935030E0
1.839554154E0,1.073463202E0,1.514835358E0,-2.551460266E-1,1.874072811E0
1.849526923E0,1.149686098E0,1.565711975E0,-2.202968597E-1,1.954932945E0
1.859775308E0,1.130468965E0,1.539981842E0,-2.020215988E-1,1.921019750E0
1.869617692E0,1.076874614E0,9.577236176E-1,7.174644470E-1,1.609859837E0
1.879636692E0,1.065690279E0,9.542875290E-1,7.195677757E-1,1.601292679E0
1.889520154E0,9.499166608E-1,2.644467354E-1,2.196749687E0,2.407900107E0
1.899527692E0,8.624132872E-1,-5.697994232E-1,3.255938530E0,3.416074322E0
1.909521308E0,8.587168455E-1,-5.302200317E-1,3.226667881E0,3.380815511E0
1.919720769E0,7.088111639E-1,-9.672646523E-1,2.941226959E0,3.176291895E0
1.929518462E0,7.071838379E-1,-9.328942299E-1,2.916377544E0,3.142556063E0
1.939517077E0,8.105294704E-1,-9.434657097E-1,1.539689541E0,1.979325504E0
1.949521154E0,8.087428808E-1,-9.303836823E-1,1.530296803E0,1.965066703E0
1.959925308E0,7.894169092E-1,-7.854404449E-1,4.349803925E-2,1.114445076E0
1.969617769E0,4.475107193E-1,-7.000303268E-1,-3.371124268E-1,8.966343127E-1
1.979546923E0,4.581933618E-1,-7.075557709E-1,-3.313202858E-1,9.057314489E-1
1.989635539E0,7.733643055E-1,-6.364192963E-1,-4.409971237E-1,1.094349274E0
1.999528692E0,7.848790884E-1,-6.418018341E-1,-4.366559982E-1,1.103908166E0
2.009517692E0,9.563778043E-1,-6.734127998E-1,7.806396484E-2,1.172278673E0
2.019518539E0,1.013882160E0,-6.844191551E-1,2.650279999E-1,1.251649494E0
2.029515615E0,1.008611560E0,-6.785445213E-1,2.605929375E-1,1.243233134E0
2.039525539E0,1.183283448E0,-6.571059227E-1,-2.271790504E-1,1.372427861E0
2.049619077E0,1.174087286E0,-6.546669006E-1,-2.293066978E-1,1.363690312E0
2.060373077E0,1.042935133E0,-6.369524002E-1,-3.118629456E-1,1.261221847E0
2.069535539E0,1.034901857E0,-6.356310844E-1,-3.131251335E-1,1.254231270E0
2.079569385E0,9.820033908E-1,-6.189208031E-1,-3.996119499E-1,1.227633223E0
2.089547539E0,9.861487746E-1,-5.918536186E-1,-5.586333275E-1,1.278613040E0
2.099526539E0,9.780406952E-1,-5.908250809E-1,-5.596661568E-1,1.272345898E0
2.109571154E0,8.674081564E-1,-4.203157425E-1,-6.815552711E-1,1.180499818E0
2.120866692E0,8.615282774E-1,-4.211926460E-1,-6.811375618E-1,1.176257878E0
2.129531462E0,8.096040487E-1,-2.355852127E-1,-7.786016464E-1,1.147684465E0
2.139528385E0,9.949867725E-1,-1.695241928E-1,-6.976952553E-1,1.226994620E0
2.149531462E0,9.885643721E-1,-1.726055145E-1,-6.957073212E-1,1.221090029E0
2.159572385E0,1.255189776E0,-1.807203293E-1,-7.547521591E-1,1.475741181E0
2.169550231E0,1.243802428E0,-1.832242012E-1,-7.533149719E-1,1.465639463E0
2.179542000E0,1.339749932E0,-2.120995522E-1,-7.053294182E-1,1.528857642E0
2.189580769E0,1.327759266E0,-2.135958672E-1,-7.045941353E-1,1.518229481E0
2.199521462E0,1.596372128E0,-1.777739525E-1,-7.660803795E-1,1.779574864E0
2.209528154E0,1.505263925E0,-2.067461014E-1,-4.554028511E-1,1.586176280E0
2.219534923E0,1.495723128E0,-2.045192719E-1,-4.572224617E-1,1.577361147E0
2.229524077E0,1.471112728E0,-2.943129539E-1,-3.294029236E-1,1.536000996E0
2.239518000E0,1.464469910E0,-2.899317741E-1,-3.326768875E-1,1.529511838E0
2.249516462E0,1.227333665E0,-1.211090088E-1,-4.317574501E-1,1.306686578E0
2.259555846E0,1.225606441E0,-1.190237999E-1,-4.332814217E-1,1.305377572E0
2.270048846E0,1.067225218E0,4.383897781E-2,-4.355125427E-1,1.153500193E0
2.279945000E0,1.006421924E0,1.581950188E-1,-5.334205627E-1,1.149977499E0
2.289526154E0,1.007557869E0,1.571140289E-1,-5.326261520E-1,1.150455690E0
2.299540231E0,1.013171077E0,3.302330971E-1,-6.935358047E-1,1.271440695E0
2.309536769E0,1.014839649E0,3.269715309E-1,-6.911706924E-1,1.270640320E0
2.319946692E0,1.162749767E0,3.897781372E-1,-8.701753616E-1,1.503701825E0
2.329517154E0,9.711726308E-1,3.990445137E-1,-4.132108688E-1,1.128342158E0
2.339767846E0,9.706899524E-1,3.984956741E-1,-4.128284454E-1,1.127592618E0
2.349595077E0,9.850369692E-1,4.133620262E-1,-2.767462730E-1,1.103519141E0
2.359554539E0,9.861977100E-1,4.139986038E-1,-2.771773338E-1,1.104901824E0
2.369528000E0,8.717990518E-1,6.034393311E-1,-4.332885742E-1,1.145387097E0
2.380449846E0,8.757166862E-1,5.995078087E-1,-4.303860664E-1,1.145216789E0
2.389609154E0,8.556407690E-1,7.466077805E-1,-6.401309967E-1,1.303576617E0
2.399519615E0,9.822924733E-1,7.320761681E-1,-4.361629486E-1,1.300412295E0
2.410421000E0,9.781078696E-1,7.280321121E-1,-4.333453178E-1,1.294030110E0
2.420166154E0,1.078877091E0,7.099599838E-1,-1.387066841E-1,1.298945149E0
2.429893385E0,1.070745707E0,7.092695236E-1,-1.383762360E-1,1.291784660E0
2.439539077E0,8.303010464E-1,7.848796844E-1,1.480774879E-1,1.152112360E0
2.449524769E0,8.256291747E-1,7.854952812E-1,1.475458145E-1,1.149102318E0
2.459566308E0,8.636338711E-1,7.845602036E-1,4.004616737E-1,1.233599501E0
2.471545846E0,6.463023424E-1,8.429145813E-1,8.034820557E-1,1.331839000E0
2.479565769E0,6.505757570E-1,8.412871361E-1,8.047323227E-1,1.333644245E0
2.489519231E0,4.011645913E-1,1.005425930E0,1.239239216E0,1.645456825E0
2.499661769E0,4.120008349E-1,1.002466202E0,1.241596699E0,1.648103618E0
2.510252308E0,4.841426611E-1,1.292004108E0,1.146507263E0,1.793919629E0
2.519566385E0,6.548568010E-1,1.565283775E0,1.183788300E0,2.068889911E0
2.529567615E0,6.585214138E-1,1.556385994E0,1.190328598E0,2.067092157E0
2.539618077E0,8.028043509E-1,1.347539902E0,1.364359379E0,2.078902385E0
2.549535692E0,7.972070575E-1,1.346621513E0,1.364888191E0,2.076499065E0
2.559522615E0,3.303073049E-1,9.233202934E-1,1.852548122E0,2.096081541E0
2.569526615E0,3.297374249E-1,9.366850853E-1,1.842853069E0,2.093373630E0
2.580437615E0,-1.383789629E-1,4.221720695E-1,2.570064068E0,2.608180842E0
2.589586154E0,-8.766254783E-1,-1.187620163E-1,3.498854160E0,3.608955123E0
2.600252846E0,-8.645521402E-1,-7.358884811E-2,3.467310905E0,3.574228677E0
2.609545154E0,-1.403476357E0,-5.209522247E-1,3.663249016E0,3.957338810E0
2.619549539E0,-1.384914994E0,-4.727883339E-1,3.630697250E0,3.914521794E0
2.629525231E0,-1.746601820E0,-8.463525772E-1,2.971054077E0,3.548815708E0
2.640086000E0,-1.664249301E0,-8.603763580E-1,1.238481522E0,2.245842758E0
2.649527154E0,-1.632820845E0,-8.533401489E-1,1.235013962E0,2.218006494E0
2.659679846E0,-1.112894058E0,-8.213696480E-1,-7.011637688E-1,1.550745599E0
2.669538923E0,-1.093643427E0,-8.321809769E-1,-6.929945946E-1,1.539097993E0
2.679522923E0,-1.028742194E0,-8.510532379E-1,-1.161756516E0,1.769824940E0
2.690749615E0,-1.023474216E0,-8.578305244E-1,-1.156911850E0,1.766866636E0
2.699559769E0,-4.228580892E-1,-7.688341141E-1,-7.976737022E-1,1.185832279E0
2.709528385E0,-1.847461760E-1,-5.505437851E-1,-9.089336395E-1,1.078605567E0
2.719533615E0,-1.920494437E-1,-5.453643799E-1,-9.127902985E-1,1.080505171E0
2.729698231E0,-4.565128684E-2,-4.147963524E-1,-7.361660004E-1,8.462153591E-1
2.741608539E0,-4.578787088E-2,-4.118194580E-1,-7.381801605E-1,8.465233278E-1
2.749530385E0,-5.391916037E-1,-4.071807861E-1,-5.962247849E-1,9.011147386E-1
2.759574385E0,-5.240418911E-1,-4.045290947E-1,-5.972700119E-1,8.916250104E-1
2.769527231E0,-9.518893957E-1,-3.490056992E-1,-5.280637741E-1,1.143131554E0
2.780211539E0,-9.964351654E-1,-3.753499985E-1,-8.331441879E-1,1.351998483E0
2.789581923E0,-9.649689198E-1,-3.780059814E-1,-8.294906616E-1,1.327444272E0
2.800071231E0,-1.029929161E0,-3.877811432E-1,-8.778543472E-1,1.407748751E0
2.809535462E0,-1.005685329E0,-3.905987740E-1,-8.743486404E-1,1.388688564E0
2.819546231E0,-8.050886393E-1,-4.159007072E-1,-1.100766182E0,1.425772528E0
2.829540692E0,-7.906967998E-1,-4.186582565E-1,-1.097879410E0,1.416268111E0
2.839619846E0,-4.443968534E-1,-3.756937981E-1,-1.215222836E0,1.347368151E0
2.849519846E0,-9.844350815E-2,-3.383660316E-1,-1.319297791E0,1.365550935E0
2.859527692E0,-9.532195330E-2,-3.415007591E-1,-1.316941261E0,1.363834055E0
2.869837769E0,1.678519547E-1,-3.377995491E-1,-9.757246971E-1,1.046098226E0
2.879622154E0,1.671394408E-1,-3.362994194E-1,-9.767956734E-1,1.046500205E0
2.889882846E0,1.884601414E-1,-2.807888985E-1,-6.433000565E-1,7.267699726E-1
2.899545923E0,3.051912487E-1,-1.487960815E-1,-6.242451668E-1,7.106081905E-1
2.910425615E0,3.014007509E-1,-1.452865601E-1,-6.268963814E-1,7.105981073E-1
2.919549615E0,2.128536105E-1,4.341125488E-2,-5.649781227E-1,6.053027967E-1
2.929553692E0,2.091006637E-1,4.587888718E-2,-5.669159889E-1,6.059881998E-1
2.939611385E0,3.380081058E-1,1.439709663E-1,-6.447644234E-1,7.420904799E-1
2.949667154E0,3.311715126E-1,1.458501816E-1,-6.465163231E-1,7.408982401E-1
2.959981769E0,1.334581673E-1,2.073473930E-1,-5.142731667E-1,5.703340370E-1
2.969528615E0,-1.520046592E-1,2.986278534E-1,-4.747242928E-1,5.810741479E-1
2.979522231E0,-1.547209620E-1,3.035969734E-1,-4.782547951E-1,5.872285308E-1
2.989742846E0,-7.689315081E-2,3.637218475E-1,-4.419827461E-1,5.775421083E-1
3.000116462E0,-8.188629150E-2,3.693366051E-1,-4.460892677E-1,5.849021520E-1
3.009606462E0,-6.204193830E-2,3.650379181E-1,-7.065963745E-2,3.769544642E-1
3.019517308E0,-6.942623854E-2,3.740181923E-1,-7.714939117E-2,3.881515675E-1
3.029641308E0,8.760750294E-2,3.679246902E-1,2.087421417E-1,4.319918217E-1
3.041656846E0,2.152029574E-1,4.761714935E-1,1.480216980E-1,5.431040666E-1
3.049562462E0,1.997556686E-1,4.829754829E-1,1.425638199E-1,5.417490997E-1
3.060173231E0,-5.249488354E-2,6.059975624E-1,-5.216789246E-2,6.104999979E-1
3.069534616E0,-6.350478530E-2,6.064896584E-1,-5.313491821E-2,6.121159065E-1
3.079775231E0,-1.273909211E-1,8.486976624E-1,-4.159765244E-1,9.537046910E-1
3.089537462E0,-7.344454527E-3,9.580993652E-1,-7.326655388E-1,1.206153857E0
3.099893692E0,-1.499068737E-2,9.471378326E-1,-7.258019447E-1,1.193349596E0
3.110955231E0,-6.570747495E-2,9.486970901E-1,-4.355425835E-1,1.045964140E0
3.119524231E0,-7.359102368E-2,9.412741661E-1,-4.310088158E-1,1.037873448E0
3.129582769E0,-1.370251477E-1,1.029582977E0,-1.829252243E-1,1.054646214E0
3.139556154E0,-1.445508599E-1,1.023378849E0,-1.791591644E-1,1.048950536E0
3.149536308E0,-1.237389743E-1,1.147231102E0,-5.710506439E-2,1.155297158E0
3.159744616E0,-1.258367300E-2,1.210220337E0,-1.754837036E-1,1.222941594E0
3.169522308E0,-2.091395855E-2,1.198989391E0,-1.683130264E-1,1.210926186E0
3.179858539E0,-1.669576764E-1,1.265687943E0,-1.462779045E-1,1.285005081E0
3.189580539E0,-1.720268726E-1,1.252776146E0,-1.377491951E-1,1.272012640E0
3.199528000E0,-6.817093492E-2,1.239328384E0,1.307621002E-1,1.248070850E0
3.209579077E0,2.759885788E-2,1.180840969E0,4.429101944E-1,1.261473952E0
3.219523385E0,1.898324490E-2,1.172928810E0,4.479389191E-1,1.255695677E0
3.229515692E0,4.599096477E-1,1.096729755E0,1.000929832E0,1.554411004E0
3.239561385E0,4.402272999E-1,1.092290878E0,1.003151894E0,1.547001345E0
3.249520692E0,9.121816754E-1,1.163765430E0,1.428443909E0,2.055937107E0
3.259889154E0,8.806481361E-1,1.160005569E0,1.429920197E0,2.041035480E0
3.269527539E0,1.578551292E0,1.313084126E0,9.905519485E-1,2.279738421E0
3.279534923E0,1.803696632E0,1.431816101E0,1.374330521E-1,2.307012512E0
3.289529231E0,1.772179604E0,1.408231258E0,1.531524658E-1,2.268742273E0
3.299695231E0,1.351640701E0,1.255932331E0,-5.311965942E-3,1.845081793E0
3.309524769E0,1.339938521E0,1.236696720E0,8.020401001E-3,1.823435863E0
3.320293077E0,1.012875557E0,5.695991516E-1,1.493731499E0,1.892509941E0
3.329814846E0,1.014075518E0,5.759100914E-1,1.489304543E0,1.891573316E0
3.340149539E0,1.239335656E0,-3.494462967E-1,3.094868660E0,3.352055728E0
3.349531692E0,1.296927333E0,-9.903616905E-1,3.509559631E0,3.870380549E0
3.360038923E0,1.280815363E0,-9.461021423E-1,3.479053497E0,3.826148258E0
3.369591077E0,1.192722201E0,-1.058227539E0,2.129615784E0,2.660393798E0
3.380517077E0,1.172037244E0,-1.035904408E0,2.114413261E0,2.630116477E0
3.389592462E0,7.741992474E-1,-9.841904640E-1,7.488451004E-1,1.459035410E0
3.399643923E0,8.034340143E-1,-8.163862228E-1,-5.957055092E-1,1.291068447E0
3.409526077E0,8.003286719E-1,-8.329439163E-1,-5.845789909E-1,1.294625099E0
3.419784308E0,1.171753764E0,-7.693204880E-1,-9.731812477E-1,1.706441513E0
3.429587077E0,1.162736416E0,-7.854776382E-1,-9.622378349E-1,1.701420802E0
3.439534077E0,1.535890818E0,-9.272994995E-1,-3.236212730E-1,1.823067660E0
3.449534692E0,1.514721870E0,-9.288897514E-1,-3.225235939E-1,1.805890358E0
3.459528308E0,1.767416000E0,-1.002259254E0,2.654170990E-1,2.049080078E0
3.469551000E0,1.784636617E0,-8.667292595E-1,-1.711201668E-1,1.991338639E0
3.479642692E0,1.760459661E0,-8.629813194E-1,-1.734099388E-1,1.968254553E0
3.490246616E0,1.416054249E0,-7.369408607E-1,-4.278283119E-1,1.652673147E0
3.499535308E0,1.396883965E0,-7.366838455E-1,-4.276967049E-1,1.636127247E0
3.509577231E0,1.114456177E0,-7.028546333E-1,-3.206410408E-1,1.356033880E0
3.520129308E0,7.509994507E-1,-7.653546333E-1,-1.024255753E-1,1.077153141E0
3.529560616E0,7.396228313E-1,-7.570261955E-1,-1.078243256E-1,1.063840532E0
3.539970616E0,5.391788483E-1,-6.960844994E-1,-2.459559441E-1,9.141891419E-1
3.550284692E0,5.304739475E-1,-6.866998672E-1,-2.520775795E-1,9.036052361E-1
3.560742308E0,2.713032961E-1,-5.865411758E-1,-3.010621071E-1,7.129336728E-1
3.570241154E0,2.639406323E-1,-5.773949623E-1,-3.070130348E-1,7.051996905E-1
3.579524000E0,5.271106958E-1,-5.641279221E-1,-3.958163261E-1,8.676154460E-1
3.589525154E0,6.413843632E-1,-6.052021980E-1,-3.559904099E-1,9.509851596E-1
3.599637385E0,6.226928234E-1,-5.938701630E-1,-3.629589081E-1,9.338989730E-1
3.609899692E0,9.133636951E-1,-6.002578735E-1,-5.812940598E-1,1.237919843E0
3.619516846E0,8.928589821E-1,-5.897431374E-1,-5.875205994E-1,1.220727072E0
3.629523000E0,9.823813438E-1,-5.792188644E-1,-6.076841354E-1,1.292225834E0
3.640539385E0,9.635753632E-1,-5.692353249E-1,-6.134939194E-1,1.276276273E0
3.649526692E0,1.067080617E0,-5.230231285E-1,-6.411085129E-1,1.350271958E0
3.659539923E0,9.473272562E-1,-4.771685600E-1,-3.921189308E-1,1.130874008E0
3.669557231E0,9.315214753E-1,-4.639186859E-1,-4.000296593E-1,1.114888575E0
3.679745539E0,4.581888020E-1,-3.296351433E-1,-1.522216797E-1,5.846090538E-1
3.690247923E0,4.513614774E-1,-3.168377876E-1,-1.601848602E-1,5.742582663E-1
3.699551846E0,4.240356982E-1,-8.414220810E-2,-4.541883469E-1,6.270352773E-1
3.709602308E0,4.202853739E-1,-7.651233673E-2,-4.589214325E-1,6.269791180E-1
3.719855308E0,5.734032393E-1,4.580497742E-2,-5.486874580E-1,7.949511289E-1
3.729532846E0,5.119924545E-1,3.869533539E-2,-3.788380623E-1,6.380845398E-1
3.739545923E0,5.050213337E-1,4.707860947E-2,-3.838496208E-1,6.360844868E-1
3.749525923E0,4.705233574E-1,1.772384644E-1,-5.590877533E-1,7.519207531E-1
3.759582077E0,4.646521211E-1,1.825642586E-1,-5.621747971E-1,7.518455989E-1
3.769538077E0,6.849658489E-1,2.686138153E-1,-9.386997223E-1,1.192681334E0
3.780502231E0,5.099751353E-1,3.459544182E-1,-7.028594017E-1,9.347568864E-1
3.789555154E0,5.053501129E-1,3.486981392E-1,-7.043480873E-1,9.343850154E-1
3.799681462E0,8.101824522E-1,3.463678360E-1,-5.833907127E-1,1.056745479E0
3.809524769E0,8.068871498E-1,3.504610062E-1,-5.858073235E-1,1.056910597E0
3.820014077E0,8.878850937E-1,4.336614609E-1,-4.514212608E-1,1.086362443E0
3.829530000E0,8.874416351E-1,4.357209206E-1,-4.527039528E-1,1.087357460E0
3.839562000E0,7.734706402E-1,6.076178551E-1,-3.954486847E-1,1.060111292E0
3.849534385E0,4.831724465E-1,7.534561157E-1,-1.473073959E-1,9.071114597E-1
3.859561308E0,4.898051918E-1,7.542381287E-1,-1.481781006E-1,9.114499603E-1
3.870084462E0,3.514204621E-1,8.702597618E-1,2.016954422E-1,9.599632522E-1
3.880892077E0,3.616927266E-1,8.715195656E-1,2.003383636E-1,9.646260631E-1
3.889623231E0,3.515341580E-1,1.007556915E0,-5.039882660E-2,1.068310462E0
3.899724539E0,1.310566962E-1,1.097370625E0,3.688621521E-2,1.105784219E0
3.909557308E0,1.469201148E-1,1.088236332E0,4.191017151E-2,1.098908684E0
3.919591923E0,4.107663035E-2,1.108789921E0,2.464771271E-1,1.136597269E0
3.929723846E0,6.002533436E-2,1.100580692E0,2.508583069E-1,1.130402933E0
3.941009308E0,-1.644098908E-1,1.187290192E0,5.617361069E-1,1.323720539E0
3.949521231E0,-1.515146941E-1,1.180726528E0,5.654373169E-1,1.317873741E0
3.959578308E0,-3.492603898E-1,1.202054501E0,1.361166000E0,1.849240580E0
3.969531462E0,-1.560259014E-1,1.276079178E0,2.383383751E0,2.707995616E0
3.979546154E0,-1.357107013E-1,1.280739784E0,2.379742622E0,2.705898508E0
3.989514539E0,3.711465895E-1,1.423005581E0,2.104876518E0,2.567722694E0
3.999519000E0,3.814052939E-1,1.421487808E0,2.105559349E0,2.568944873E0
4.009534692E0,3.430918455E-1,1.375756741E0,1.222235680E0,1.871971870E0
4.019677154E0,3.574367166E-1,1.363651752E0,1.229662895E0,1.870662435E0
4.029517923E0,-7.417947054E-3,1.086896896E0,6.600637436E-1,1.271646191E0
4.039520923E0,-8.507727385E-1,4.320292473E-1,1.696469307E0,1.946399659E0
4.049541000E0,-8.136398196E-1,4.536094666E-1,1.681928635E0,1.922668780E0
4.060721616E0,-1.169815302E0,-4.118323326E-1,2.914126396E0,3.167050104E0
4.069564462E0,-1.126701355E0,-3.642854691E-1,2.883742332E0,3.117391487E0
4.079563154E0,-1.429189920E0,-1.029728413E0,3.618535995E0,4.024515770E0
4.089524769E0,-1.382165313E0,-9.696598053E-1,2.969867706E0,3.416245788E0
4.099524231E0,-1.255349278E0,-1.331963539E0,3.074305534E0,3.577902067E0
4.109521846E0,-1.232035756E0,-1.116485119E0,1.369688988E0,2.154181758E0
4.119533846E0,-1.212149382E0,-1.099637985E0,1.359990120E0,2.127929263E0
4.129518692E0,-1.359128952E0,-5.399656296E-1,-7.041583061E-1,1.623155356E0
4.139533539E0,-1.342647552E0,-5.531530380E-1,-6.960415840E-1,1.610327489E0
4.149663462E0,-1.315247059E0,-1.546492577E-1,-1.434505463E0,1.952331207E0
4.159529154E0,-8.866874576E-1,7.986402512E-2,-1.029137611E0,1.360778135E0
4.170929846E0,-8.738808036E-1,6.269311905E-2,-1.018492699E0,1.343475144E0
4.179669077E0,-5.574581623E-1,2.253031731E-1,-1.080339909E0,1.236388062E0
4.189679385E0,-5.497406721E-1,2.128944397E-1,-1.072601795E0,1.223933601E0
4.199537846E0,-4.381583035E-1,2.843484879E-1,-1.151831150E0,1.264733869E0
4.209566539E0,-4.358444512E-1,2.739720345E-1,-1.145425320E0,1.255794658E0
4.219564539E0,4.202193022E-1,1.623630524E-3,-6.852531433E-1,8.038400143E-1
4.229774154E0,4.524932504E-1,-2.679052353E-1,3.492155075E-1,6.312486257E-1
4.239513000E0,4.435387254E-1,-2.606616020E-1,3.445768356E-1,6.191964691E-1
4.249977308E0,-1.441584378E-1,-3.618321419E-1,9.183320999E-1,9.975159146E-1
4.259540231E0,-1.417857707E-1,-3.506870270E-1,9.116220474E-1,9.869849811E-1
4.270259000E0,-7.587033510E-1,-3.416123390E-1,1.940765381E-1,8.543977222E-1
4.279557077E0,-1.408475876E0,-1.249961853E-1,-9.198307991E-1,1.686866040E0
4.289513385E0,-1.380723476E0,-1.423144341E-1,-9.084734917E-1,1.658907713E0
4.299534923E0,-1.066933751E0,-4.074573517E-2,-1.681167603E0,1.991565302E0
4.309614231E0,-1.046513438E0,-6.104707718E-2,-1.667957306E0,1.970025050E0
4.320291462E0,-8.344678283E-1,-5.023670197E-2,-1.568081379E0,1.777002953E0
4.329530462E0,-8.273194432E-1,-6.028509140E-2,-1.561573505E0,1.768220452E0
4.339518308E0,-9.556770325E-2,-2.308950424E-1,-1.168194294E0,1.194622792E0
4.349528154E0,5.699368715E-1,-3.341245651E-1,-7.208843231E-1,9.778248667E-1
4.359575462E0,5.417398214E-1,-3.247117996E-1,-7.276878357E-1,9.635607781E-1
4.370013769E0,6.124542952E-1,-2.310991287E-1,-1.155977249E0,1.328454166E0
4.379588308E0,5.898461342E-1,-2.277040482E-1,-1.158711433E0,1.319992341E0
4.389632231E0,3.079051375E-1,4.925918579E-2,-1.707891464E0,1.736123640E0
4.400339539E0,2.125263363E-1,2.347426414E-1,-1.517114639E0,1.549809143E0
4.409549846E0,2.087044567E-1,2.305893898E-1,-1.514632225E0,1.546234068E0
4.419544923E0,9.487813711E-2,3.653244972E-1,-8.806743622E-1,9.581498742E-1
4.429906231E0,9.048908949E-2,3.677511215E-1,-8.822765350E-1,9.601255371E-1
4.440698923E0,9.030903876E-2,4.182109833E-1,-5.201511383E-1,6.735082447E-1
4.449563846E0,8.499610424E-2,4.226408005E-1,-5.230045319E-1,6.777782265E-1
4.459542154E0,7.097958773E-2,4.635553360E-1,-4.705247879E-1,6.643156083E-1
4.469613077E0,-2.191652954E-1,5.254621506E-1,-4.823627472E-1,7.462021966E-1
4.479542308E0,-2.193978876E-1,5.264539719E-1,-4.829788208E-1,7.473672182E-1
4.489530846E0,-5.195790529E-1,5.135211945E-1,1.855087280E-2,7.307602509E-1
4.500143385E0,-5.178722143E-1,5.169391632E-1,1.648139954E-2,7.319080307E-1
4.509547769E0,-5.253600478E-1,4.471168518E-1,3.186731339E-1,7.599139591E-1
4.519517539E0,-5.276062489E-1,4.532713890E-1,3.148488998E-1,7.635136775E-1
4.529515462E0,-5.334149003E-1,4.589877129E-1,3.048429489E-1,7.668966032E-1
4.539513769E0,-4.091865122E-1,5.964598656E-1,1.498746872E-1,7.386882935E-1
4.549521846E0,-4.188620746E-1,5.931496620E-1,1.517391205E-1,7.418198702E-1
4.559538000E0,-2.210270166E-1,7.651576996E-1,-7.423400879E-2,7.998937026E-1
4.569515693E0,-2.392299771E-1,7.566137314E-1,-6.922054291E-2,7.965467997E-1
4.579547154E0,-1.164331138E-1,9.166512489E-1,-1.420555115E-1,9.348721573E-1
4.589514846E0,-1.375737637E-1,9.020333290E-1,-1.331901550E-1,9.221335503E-1
4.599784308E0,-1.168047786E-1,1.024535656E0,-1.574134827E-1,1.043118244E0
4.609515462E0,-2.486983389E-1,1.147814751E0,-1.781673431E-1,1.187886008E0
4.619604385E0,-2.602367997E-1,1.125247478E0,-1.640253067E-1,1.166537347E0
4.629525231E0,-3.346217573E-1,1.225776196E0,-2.625732422E-1,1.297475899E0
4.639637000E0,-3.425227702E-1,1.200617313E0,-2.465677261E-1,1.272634836E0
4.649563693E0,-4.972402453E-1,1.254658699E0,-3.986263275E-2,1.350187151E0
4.659706308E0,-2.334460318E-1,1.162866592E0,6.338949203E-1,1.344834016E0
4.669519462E0,-2.462119460E-1,1.147360802E0,6.439619064E-1,1.338560446E0
4.680201154E0,-1.833184808E-2,1.028439999E0,1.277769089E0,1.640341041E0
4.689548539E0,-3.701531887E-2,1.019551754E0,1.283676147E0,1.639719599E0
4.699580308E0,7.050938904E-2,1.123757362E0,1.494901657E0,1.871505583E0
4.709565769E0,5.687288195E-2,1.115276814E0,1.500601768E0,1.870530022E0
4.719556846E0,4.157075286E-1,1.384505749E0,1.543178558E0,2.114490241E0
4.729532077E0,8.111516833E-1,1.707286835E0,9.605093002E-1,2.120229588E0
4.740172693E0,7.930660248E-1,1.681685925E0,9.778299332E-1,2.100755256E0
4.749528539E0,7.894026041E-1,1.762027740E0,3.745803833E-1,1.966776218E0
4.760081385E0,7.812510133E-1,1.732933521E0,3.943605423E-1,1.941373733E0
4.770062000E0,1.398997754E-1,1.316173553E0,7.346496582E-1,1.513801470E0
4.780632308E0,-6.514144689E-2,5.335855484E-1,2.119828224E0,2.186922186E0
4.789531462E0,-5.146449059E-2,5.471692085E-1,2.110356331E0,2.180744501E0
4.799523693E0,5.425852537E-2,-2.577128410E-1,3.232511520E0,3.243222260E0
4.809897539E0,6.753589958E-2,-2.229952812E-1,3.209064484E0,3.217511904E0
4.819540616E0,-1.102538481E-1,-6.154856682E-1,2.629981041E0,2.703290364E0
4.829542154E0,-1.018396318E-1,-5.909919739E-1,2.613728523E0,2.681644946E0
4.844191231E0,-2.584449053E-1,-6.824140549E-1,8.019189835E-1,1.084230957E0
4.849707308E0,-6.171517968E-1,-7.870874405E-1,-3.080096245E-1,1.046543314E0
4.860709462E0,-6.101361513E-1,-8.049578667E-1,-2.963128090E-1,1.052627461E0
4.869540154E0,-2.142648697E-1,-8.990736008E-1,-7.337002754E-1,1.180067315E0
4.879544231E0,-2.057589293E-1,-9.223194122E-1,-7.183051109E-1,1.187001292E0
4.889564693E0,2.021947876E-2,-8.801989555E-1,-1.116361618E0,1.421767312E0
4.899635769E0,2.602215484E-2,-9.049239159E-1,-1.099740982E0,1.424427841E0
4.909561231E0,2.692214549E-1,-8.460030556E-1,-1.125741005E0,1.433699471E0
4.919546000E0,3.101744056E-1,-7.320384979E-1,-7.223629951E-1,1.074195895E0
4.929554923E0,2.984237671E-1,-7.455019951E-1,-7.130389214E-1,1.073896863E0
4.939991231E0,3.874091506E-1,-5.724925995E-1,-4.236431122E-1,8.107447890E-1
4.949553693E0,3.717358112E-1,-5.816669464E-1,-4.171295166E-1,8.065488104E-1
4.959522539E0,3.706261516E-1,-5.117974281E-1,-5.189003944E-1,8.176539433E-1
4.969533616E0,3.560383022E-1,-5.204968452E-1,-5.126385689E-1,8.126983086E-1
4.979518539E0,1.272447109E-1,-4.692416191E-1,-7.436242104E-1,8.884570219E-1
4.989528923E0,-1.134694815E-1,-3.984885216E-1,-8.445429802E-1,9.407025409E-1
4.999525846E0,-1.268102974E-1,-4.052739143E-1,-8.395237923E-1,9.408124122E-1
5.009633616E0,-2.830619514E-1,-3.265881538E-1,-1.009529114E0,1.098149772E0
5.019551769E0,-2.975081205E-1,-3.298697472E-1,-1.006879807E0,1.100514460E0
5.031267000E0,-3.103674650E-1,-2.889027596E-1,-1.030114174E0,1.113969470E0
5.039539385E0,1.112720370E-2,-3.132185936E-1,-8.777370453E-1,9.320150335E-1
5.049547693E0,-1.172229648E-2,-3.055305481E-1,-8.824043274E-1,9.338756475E-1
5.059808000E0,-5.106295645E-2,-2.817258835E-1,-5.847907066E-1,6.511198580E-1
5.069891308E0,-7.517547905E-2,-2.671599388E-1,-5.940423012E-1,6.556767810E-1
5.079621462E0,8.483290672E-2,-2.684445381E-1,-4.780702591E-1,5.548065111E-1
5.089528769E0,6.522494555E-2,-2.541046143E-1,-4.871587753E-1,5.533056306E-1
5.099525769E0,4.359896779E-1,-2.717618942E-1,-7.501664162E-1,9.092255927E-1
5.109561231E0,4.892364740E-1,-1.655654907E-1,-8.862986565E-1,1.025811663E0
5.119706923E0,4.749501348E-1,-1.550226212E-1,-8.928303719E-1,1.023110804E0
5.130235539E0,2.839977741E-1,-3.534126282E-2,-9.106335640E-1,9.545455612E-1
5.139521154E0,2.762042284E-1,-2.649641037E-2,-9.162697792E-1,9.573615534E-1
5.149524077E0,2.991544008E-1,1.023945808E-1,-7.366862297E-1,8.016761234E-1
5.160544462E0,3.162577450E-1,1.231265068E-1,-2.751197815E-1,4.368867040E-1
5.169533154E0,3.144101501E-1,1.364555359E-1,-2.840337753E-1,4.451393504E-1
5.179524923E0,4.905521870E-2,2.624797821E-1,-1.508417130E-1,3.066843212E-1
5.189518231E0,5.570545793E-2,2.715854645E-1,-1.573047638E-1,3.187578254E-1
5.199639077E0,-4.305537343E-1,4.702963829E-1,-5.872502327E-1,8.668437239E-1
5.210191616E0,-4.096132815E-1,4.679803848E-1,-5.867104530E-1,8.549958109E-1
5.219533462E0,-6.605154276E-1,5.880465508E-1,-5.164551735E-1,1.024111968E0
5.229770308E0,-1.886390895E-1,6.507105827E-1,-5.883798599E-1,8.973292752E-1
5.239655769E0,-1.766571850E-1,6.436152458E-1,-5.840950012E-1,8.869133645E-1
5.249701846E0,1.371108592E-1,6.015176773E-1,-6.074986458E-1,8.658391932E-1
5.259530616E0,1.402582526E-1,5.941119194E-1,-6.026167870E-1,8.577810572E-1
5.269780769E0,1.223411262E-1,5.745019913E-1,-5.926222801E-1,8.343986194E-1
5.279527462E0,1.271623969E-1,5.666184425E-1,-5.874581337E-1,8.260349832E-1
5.289529077E0,1.310228109E-1,4.534578323E-1,-3.905310631E-1,6.126218197E-1
5.299520769E0,3.858142197E-1,3.819499016E-1,-3.339586258E-1,6.373905421E-1
5.309542769E0,3.906815946E-1,3.773427010E-1,-3.309965134E-1,6.360647091E-1
5.319533077E0,4.852662683E-1,4.401812553E-1,-2.092847824E-1,6.877812216E-1
5.329759154E0,4.883819818E-1,4.364295006E-1,-2.068319321E-1,6.868530536E-1
5.339539308E0,4.799644351E-1,5.299639702E-1,-6.555366516E-2,7.180006627E-1
5.349515231E0,2.421213984E-1,7.228941917E-1,-2.122273445E-1,7.913527847E-1
5.359531308E0,2.488893569E-1,7.170443535E-1,-2.084498405E-1,7.871148918E-1
5.370291846E0,1.266615093E-1,9.635872841E-1,-1.735873222E-1,9.872568817E-1
5.379526539E0,1.408444047E-1,9.561443329E-1,-1.689219475E-1,9.811135286E-1
5.389536154E0,-9.621728957E-2,1.242888927E0,1.225395203E-1,1.252615898E0
5.399523462E0,-7.660384476E-2,1.236853123E0,1.261606216E-1,1.245628475E0
5.410719693E0,-3.162281215E-1,1.451075077E0,9.748210907E-1,1.776483961E0
5.419517616E0,-9.065691382E-2,1.721465588E0,1.562128067E0,2.326350477E0
5.429529539E0,-7.423148304E-2,1.722863674E0,1.560822487E0,2.325926995E0
5.439516616E0,2.896524966E-1,2.121992588E0,1.598620415E0,2.672515359E0
5.449537616E0,2.973057628E-1,2.118206024E0,1.601103783E0,2.671838468E0
5.459564077E0,2.869435549E-1,2.152273178E0,1.249118805E0,2.504977889E0
5.469620693E0,2.908182144E-1,2.146523952E0,1.253044128E0,2.502450779E0
5.479529077E0,-1.742673665E-2,1.639699936E0,1.622652054E0,2.306928534E0
5.489845000E0,-1.352259070E-1,1.020704746E0,2.671765327E0,2.863294290E0
5.499540769E0,-1.287152171E-1,1.041131496E0,2.657664299E0,2.857219265E0
5.509519077E0,-6.355566978E-1,3.601117134E-1,3.453595161E0,3.530004575E0
5.519529923E0,-6.197375059E-1,4.061579704E-1,3.422461510E0,3.501754083E0
5.529534385E0,-1.127224565E0,-1.084895134E-1,3.446137428E0,3.627432752E0
5.539525385E0,-1.845293164E0,-5.135197639E-1,2.833404541E0,3.420086359E0
5.549544846E0,-1.810351968E0,-4.858074188E-1,2.815332413E0,3.382229988E0
5.559524231E0,-2.254175901E0,-8.162326813E-1,1.894581795E0,3.055648043E0
5.569538154E0,-2.211806536E0,-8.048686981E-1,1.887632370E0,3.017127398E0
5.579548616E0,-2.175405741E0,-1.029436588E0,3.711595535E-1,2.435136390E0
5.589590616E0,-2.136357784E0,-1.038999557E0,3.780269623E-1,2.405503907E0
5.599517693E0,-1.724664569E0,-1.205604553E0,-8.858113289E-1,2.283114523E0
5.609526539E0,-1.143941045E0,-1.226493359E0,-1.567175388E0,2.295414074E0
5.619742231E0,-1.139525652E0,-1.240729809E0,-1.557797909E0,2.294485453E0
5.629528154E0,-9.925857782E-1,-1.161110401E0,-1.479993343E0,2.126918942E0
5.639536770E0,-9.943989515E-1,-1.167802811E0,-1.475656033E0,2.128415703E0
5.649541923E0,-9.568357468E-1,-8.817148209E-1,-1.552715302E0,2.025803663E0
5.659530385E0,-9.502935410E-1,-8.853788376E-1,-1.550141335E0,2.022348055E0
5.669540385E0,-1.379839897E0,-7.100915909E-1,-1.439537048E0,2.116708559E0
5.679526385E0,-1.738525152E0,-5.819902420E-1,-1.330607414E0,2.265325239E0
5.690896308E0,-1.693395972E0,-5.835361481E-1,-1.327946663E0,2.229696548E0
5.699546308E0,-1.862601399E0,-4.809432030E-1,-1.382667065E0,2.369041694E0
5.709540846E0,-1.814227819E0,-4.797306061E-1,-1.381145000E0,2.330048400E0
5.719522770E0,-1.747483492E0,-4.911341667E-1,-1.063370705E0,2.103727306E0
5.729547308E0,-1.394281864E0,-5.018343925E-1,-9.985175133E-1,1.786867902E0
5.739523846E0,-1.364162445E0,-4.894256592E-1,-1.004752636E0,1.763520488E0
5.749552154E0,-9.641080499E-1,-4.561266899E-1,-9.229917526E-1,1.410485613E0
5.759598385E0,-9.435539246E-1,-4.410495758E-1,-9.313879013E-1,1.397248067E0
5.769530539E0,-6.984727383E-1,-3.359971046E-1,-1.130707264E0,1.370859999E0
5.779530077E0,-6.847633123E-1,-3.229689598E-1,-1.138132572E0,1.366951168E0
5.789674077E0,-3.552284241E-1,-2.468733788E-1,-1.027656555E0,1.114994033E0
5.801426000E0,6.763756275E-2,-1.924452782E-1,-7.596325874E-1,7.865441455E-1
5.809569308E0,6.709235907E-2,-1.758179665E-1,-7.703070641E-1,7.929604750E-1
5.819525539E0,-1.529622078E-1,-9.637689590E-2,-3.930506706E-1,4.326369988E-1
5.829625308E0,-1.543208957E-1,-7.735586166E-2,-4.051995277E-1,4.404378792E-1
5.839682923E0,-1.288081408E-1,1.180453300E-1,-6.040205956E-1,6.287822492E-1
5.850181770E0,-2.570784092E-1,2.736535072E-1,-7.543320656E-1,8.426104768E-1
5.859534308E0,-2.591365576E-1,2.823166847E-1,-7.599120140E-1,8.510703467E-1
5.869534846E0,-3.606498241E-1,3.366947174E-1,-6.455097198E-1,8.124742622E-1
5.879518770E0,-3.645111918E-1,3.439860344E-1,-6.503391266E-1,8.210577205E-1
5.889529923E0,-4.980323911E-1,3.965411186E-1,-4.960641861E-1,8.070692647E-1
5.899523308E0,-5.052496195E-1,4.047894478E-1,-5.017032623E-1,8.190469086E-1
5.909745308E0,-4.480527639E-1,3.828797340E-1,-6.461014748E-1,8.745257490E-1
5.919527616E0,-5.269796252E-1,3.647117615E-1,-4.882555008E-1,8.056771242E-1
5.929524846E0,-5.355615616E-1,3.690824509E-1,-4.915428162E-1,8.152682883E-1
5.939534308E0,-4.246997833E-1,4.034132957E-1,-4.132623672E-1,7.168667779E-1
5.949673000E0,-4.415391684E-1,4.103922844E-1,-4.186611176E-1,7.339317377E-1
5.959526770E0,-3.111895919E-1,4.426240921E-1,-1.474847794E-1,5.608090666E-1
5.969521308E0,-3.286870122E-1,4.491205215E-1,-1.525440216E-1,5.770737157E-1
5.979522770E0,-5.001703501E-1,5.573759079E-1,-1.143445969E-1,7.575704381E-1
5.989520154E0,-6.254431009E-1,6.391725540E-1,-4.776954651E-2,8.955459541E-1
5.999778693E0,-6.345514059E-1,6.381430626E-1,-4.765987396E-2,9.011956051E-1
6.009547231E0,-7.293316126E-1,7.685027122E-1,-1.204805374E-1,1.066319173E0
6.019526385E0,-7.348197699E-1,7.606291771E-1,-1.159629822E-1,1.063938087E0
6.029526539E0,-6.477186084E-1,9.278450012E-1,-3.560504913E-1,1.186257853E0
6.039837923E0,-6.963742971E-1,1.011108398E0,6.543540955E-2,1.229454817E0
6.050289000E0,-7.006514072E-1,9.989910126E-1,7.269573212E-2,1.222366601E0
6.059518539E0,-6.590341330E-1,9.871578217E-1,5.050735474E-1,1.289924743E0
6.069664693E0,-6.662330627E-1,9.764552116E-1,5.113515854E-1,1.287948647E0
6.079586462E0,-6.374454498E-1,9.330854416E-1,7.923946381E-1,1.380171875E0
6.089525770E0,-6.451827288E-1,9.219489098E-1,7.989673615E-1,1.380072241E0
6.099523385E0,-6.864513159E-1,9.175896645E-1,1.192052841E0,1.653534450E0
6.109519616E0,-4.107514620E-1,9.537677765E-1,1.640632629E0,1.941665563E0
6.120611000E0,-4.259658158E-1,9.426069260E-1,1.646957397E0,1.944845331E0
6.130078462E0,-2.364516258E-3,9.652729034E-1,2.276903152E0,2.473063957E0
6.139528462E0,-2.478131652E-2,9.546146393E-1,2.282716751E0,2.474408816E0
6.150276154E0,3.226168752E-1,1.182321072E0,2.182040215E0,2.502651446E0
6.159521616E0,2.964129746E-1,1.163535118E0,2.193100929E0,2.500273247E0
6.170313923E0,4.291864634E-1,1.526870251E0,1.670957565E0,2.303830065E0
6.179533154E0,4.884538054E-1,1.796355724E0,1.207927704E0,2.219137298E0
6.189552770E0,4.667268991E-1,1.765073299E0,1.227802277E0,2.200185488E0
6.199522385E0,-1.436169446E-1,1.549374104E0,1.731811523E0,2.328166036E0
6.209856154E0,-1.514027715E-1,1.532980442E0,1.742477417E0,2.325764258E0
6.219662846E0,-5.814810991E-1,9.614152908E-1,2.799233437E0,3.016313555E0
6.229519154E0,-5.752563477E-1,2.119045258E-1,3.332129478E0,3.388054051E0
6.239528846E0,-5.959015489E-1,1.800141335E-1,3.319112778E0,3.376982881E0
6.249624693E0,-3.998358548E-1,-5.803160667E-1,2.721097946E0,2.810873437E0
6.259800154E0,-3.990912139E-1,-5.635037422E-1,2.710158348E0,2.796742487E0
6.269525616E0,-3.224239051E-1,-1.150543213E0,1.989278793E0,2.320546698E0
6.279818539E0,-3.310723007E-1,-1.142861843E0,1.984086037E0,2.313512365E0
6.289642462E0,4.549181461E-2,-1.509037733E0,7.028207779E-1,1.665299202E0
6.300230385E0,2.622214556E-1,-1.681928158E0,-2.538261414E-1,1.721066568E0
6.309536770E0,2.480925769E-1,-1.704687595E0,-2.392845154E-1,1.739185673E0
6.319533000E0,1.631053090E-1,-1.673791170E0,-9.103808403E-1,1.912321494E0
6.329526000E0,1.565132290E-1,-1.706258535E0,-8.890261650E-1,1.930332122E0
6.339701462E0,4.161357284E-1,-1.542807579E0,-1.570086479E0,2.240222248E0
6.349603770E0,4.088826478E-1,-1.592898369E0,-1.536376953E0,2.250547572E0
6.359520231E0,4.695836306E-1,-1.378407955E0,-1.679388523E0,2.222805230E0
6.369808539E0,1.453289092E-1,-1.243959427E0,-1.192012787E0,1.729002612E0
6.380361616E0,1.397141665E-1,-1.269523144E0,-1.174364090E0,1.735033163E0
6.389535923E0,-1.255978048E-1,-1.109354019E0,-8.445758820E-1,1.399910557E0
6.399521385E0,-1.286639571E-1,-1.124312401E0,-8.341321945E-1,1.405848252E0
6.409517539E0,-5.930531025E-1,-9.994220734E-1,-7.015948296E-1,1.357494666E0
6.419696077E0,-9.736134410E-1,-9.054894447E-1,-5.844192505E-1,1.452370520E0
6.429547308E0,-9.672999978E-1,-9.090185165E-1,-5.818347931E-1,1.449315589E0
6.439541231E0,-9.887001514E-1,-9.065399170E-1,-3.229522705E-1,1.379724893E0
6.449756385E0,-9.860028625E-1,-9.036092758E-1,-3.249816895E-1,1.376344603E0
6.463206462E0,-6.753088832E-1,-8.834757805E-1,-3.406610489E-1,1.163022568E0
6.469526693E0,-6.809107065E-1,-8.763899803E-1,-3.457431793E-1,1.162427260E0
6.479522231E0,-6.066302657E-1,-7.359323502E-1,-5.065364838E-1,1.079896251E0
6.489591385E0,-3.066155016E-1,-7.016444206E-1,-2.339100838E-1,8.006446691E-1
6.499546923E0,-3.196953237E-1,-6.866950989E-1,-2.445139885E-1,7.959537357E-1
6.509517846E0,3.163895011E-2,-6.073122025E-1,-6.607532501E-2,6.117148707E-1
6.519790539E0,1.671126857E-2,-5.896921158E-1,-7.840633392E-2,5.951164685E-1
6.529529693E0,1.702764034E-1,-6.071100235E-1,4.238128662E-2,6.319594984E-1
6.539612308E0,1.598404646E-1,-5.901875496E-1,3.070926666E-2,6.122200396E-1
6.549527077E0,4.090951383E-1,-5.081458092E-1,-8.654975891E-2,6.580743547E-1
6.559699923E0,3.886395991E-1,-2.887625694E-1,-5.259652138E-1,7.148873796E-1
6.569522385E0,3.914264739E-1,-2.844777107E-1,-5.288777351E-1,7.168360420E-1
6.579881770E0,-2.920040861E-2,-7.540464401E-2,-6.332578659E-1,6.383995997E-1
6.590251231E0,-1.651299000E-2,-7.370424271E-2,-6.343555450E-1,6.388364045E-1
6.599723000E0,-3.094628453E-1,1.056580544E-1,-5.361623764E-1,6.280135118E-1
6.611180385E0,-5.117637515E-1,3.046407700E-1,-8.472638130E-1,1.035646709E0
6.619603308E0,-4.853288531E-1,3.035883904E-1,-8.462262154E-1,1.021669621E0
6.629538693E0,-4.814055562E-1,3.234453201E-1,-7.300496101E-1,9.323843724E-1
6.639515077E0,-4.542433023E-1,3.244576454E-1,-7.302327156E-1,9.191569835E-1
6.649562693E0,-3.457804024E-1,2.557315826E-1,-6.679263115E-1,7.944106537E-1
6.659749308E0,-3.233959377E-1,2.605276108E-1,-6.706318855E-1,7.888007951E-1
6.669732462E0,-1.158490777E-2,1.333260536E-1,-3.982291222E-1,4.201148419E-1
6.683067923E0,2.633329332E-1,9.912347794E-2,-1.052389145E-1,3.004079338E-1
6.689939616E0,2.653983235E-1,1.053919792E-1,-1.094007492E-1,3.057977491E-1
6.699998770E0,6.734639406E-1,1.311030388E-1,-2.255058289E-2,6.864766674E-1
6.709520385E0,6.743961573E-1,1.436758041E-1,-3.093910217E-2,6.902247038E-1
6.719541231E0,8.460941315E-1,1.818547249E-1,4.792594910E-2,8.667429359E-1
6.729533308E0,8.461804390E-1,1.931281090E-1,4.042911530E-2,8.688810708E-1
6.739724770E0,8.535441756E-1,2.684974670E-1,1.840696335E-1,9.135152870E-1
6.749541923E0,6.289222240E-1,4.658389091E-1,3.540678024E-1,8.590186621E-1
6.759526846E0,6.448508501E-1,4.690551758E-1,3.524551392E-1,8.718199366E-1
6.769530923E0,4.279953539E-1,6.628813744E-1,4.383354187E-1,9.026237748E-1
6.780121616E0,4.546985030E-1,6.602921486E-1,4.410524368E-1,9.150211485E-1
6.789541770E0,1.677315235E-1,8.213238716E-1,7.439126968E-1,1.120764412E0
6.799518539E0,-1.007125676E-1,8.370223045E-1,1.234705925E0,1.495074607E0
6.809606308E0,-6.334286928E-2,8.328089714E-1,1.239356041E0,1.494518818E0
6.819520231E0,-3.184018731E-1,8.761115074E-1,1.926605225E0,2.140270735E0
6.829528000E0,-2.842293382E-1,8.739829063E-1,1.930055618E0,2.137696687E0
6.839526077E0,-2.816442251E-1,9.371376038E-1,2.180753708E0,2.390237874E0
6.849547385E0,-2.421125174E-1,9.291610718E-1,2.188799858E0,2.390147189E0
6.859565923E0,-1.347087026E-1,9.861907959E-1,2.257996559E0,2.467644055E0
6.869956154E0,-1.803421378E-1,1.080566406E0,2.310874939E0,2.557399075E0
6.879702616E0,-1.448386908E-1,1.054149151E0,2.331725121E0,2.563035450E0
6.889522539E0,1.847059727E-1,1.229010582E0,1.878762245E0,2.252627550E0
6.900134539E0,2.091894746E-1,1.192232609E0,1.906344414E0,2.258169138E0
6.910472539E0,6.103724837E-1,1.270459652E0,9.707603455E-1,1.711431548E0
6.919552539E0,6.243045330E-1,1.225522995E0,1.003829002E0,1.702743500E0
6.929536770E0,4.529735148E-1,1.019291878E0,3.542799950E-1,1.170322713E0
6.939642308E0,4.961633682E-2,4.231624603E-1,1.177584648E0,1.252291441E0
6.949901923E0,7.737994194E-2,4.028968811E-1,1.195263386E0,1.263712037E0
6.959515693E0,-7.309919596E-1,-2.592620850E-1,2.494776726E0,2.612561384E0
6.969511385E0,-6.916573048E-1,-2.499065399E-1,2.492456436E0,2.598688552E0
6.980410154E0,-1.348138332E0,-8.998994827E-1,3.269460678E0,3.649201168E0
6.989807154E0,-1.485560060E0,-1.372233868E0,2.932879925E0,3.562541106E0
6.999760000E0,-1.444181800E0,-1.346642494E0,2.919931412E0,3.524926457E0
7.009544000E0,-1.115828753E0,-1.596062183E0,1.561861038E0,2.496377015E0
7.019652308E0,-1.081974506E0,-1.589006901E0,1.561576843E0,2.476718393E0
7.029542000E0,-7.825170755E-1,-1.648959160E0,2.986445427E-1,1.849483130E0
7.039530616E0,-7.568877935E-1,-1.656606674E0,3.078989983E-1,1.847167182E0
7.050047847E0,-5.397803783E-1,-1.604947567E0,-6.826543808E-1,1.825715354E0
7.059685616E0,-3.671951294E-1,-1.555911541E0,-6.709046364E-1,1.733726050E0
7.069541693E0,-3.509372473E-1,-1.566840172E0,-6.604762077E-1,1.736195236E0
7.079523616E0,2.320431471E-1,-1.570056438E0,-5.239086151E-1,1.671347205E0
7.089539308E0,2.442982197E-1,-1.577570438E0,-5.164961815E-1,1.677849342E0
7.099552847E0,4.187689424E-1,-1.420037270E0,-6.121582985E-1,1.602064623E0
7.109551231E0,4.348722100E-1,-1.428231239E0,-6.035475731E-1,1.610350268E0
7.119834000E0,1.585444212E-1,-1.216754436E0,-9.235758781E-1,1.535779963E0
7.129602616E0,2.357280254E-2,-1.079556942E0,-9.581885338E-1,1.443649588E0
7.139736385E0,4.833829403E-2,-1.085347176E0,-9.496121407E-1,1.442940851E0
7.149553308E0,-7.279634476E-2,-1.128875256E0,-4.634385109E-1,1.222470410E0
7.159547077E0,-4.390919209E-2,-1.128695965E0,-4.583234787E-1,1.218992621E0
7.169527231E0,-2.760229111E-1,-1.138859272E0,5.653333664E-2,1.173194403E0
7.179548693E0,-2.214367390E-1,-1.150151253E0,4.180850983E-1,1.243654809E0
7.189655462E0,-2.036910057E-1,-1.137608051E0,4.122514725E-1,1.227026235E0
7.200315077E0,-6.441116333E-3,-9.920277596E-1,3.220481873E-1,1.043012751E0
7.210071231E0,3.697872162E-3,-9.828462601E-1,3.172993660E-1,1.032801691E0
7.224761154E0,3.292411566E-1,-8.757076263E-1,9.485244751E-2,9.403513029E-1
7.229545616E0,3.268675804E-1,-8.702669144E-1,9.042501450E-2,9.340147754E-1
7.239523616E0,8.251394629E-1,-8.505887985E-1,1.692986488E-1,1.197087495E0
7.249536847E0,1.401098847E0,-8.514795303E-1,2.679290771E-1,1.661289066E0
7.259531077E0,1.367425561E0,-8.403491974E-1,2.536163330E-1,1.624918670E0
7.270540154E0,1.682865143E0,-7.267389297E-1,8.870601654E-2,1.835225686E0
7.279524385E0,1.650028944E0,-7.190837860E-1,7.741641998E-2,1.801574397E0
7.289785539E0,1.482333183E0,-6.000223160E-1,1.940755844E-1,1.610901542E0
7.299564847E0,1.424535036E0,-4.621043205E-1,1.760525703E-1,1.507924063E0
7.309540077E0,1.404324293E0,-4.599380493E-1,1.711668968E-1,1.487604731E0
7.319533693E0,1.323070645E0,-2.894105911E-1,-1.434135437E-2,1.354429805E0
7.329520154E0,1.306520581E0,-2.919259071E-1,-1.520299911E-2,1.338823325E0
7.339534000E0,1.044564843E0,-1.086664200E-1,-8.290338516E-2,1.053469066E0
7.349694308E0,1.029288173E0,-1.123309135E-1,-8.267879486E-2,1.038695412E0
7.359521000E0,7.622676492E-1,2.136707306E-2,-1.160273552E-1,7.713435473E-1
7.369783847E0,5.458829999E-1,4.085111618E-2,3.387117386E-2,5.484563061E-1
7.380655154E0,5.335887074E-1,3.813266754E-2,3.394842148E-2,5.360256564E-1
7.391119308E0,3.745768070E-1,5.327272415E-2,1.244874001E-1,3.982999878E-1
7.399546462E0,3.660067320E-1,5.044174194E-2,1.252350807E-1,3.901142431E-1
7.409548308E0,1.687079668E-1,8.446121216E-2,1.258568764E-1,2.267951229E-1
7.419517539E0,1.597223282E-1,7.973623276E-2,1.279215813E-1,2.196201719E-1
7.429577077E0,3.276649117E-1,1.000909805E-1,-9.778404236E-2,3.562923206E-1
7.440063231E0,5.310840607E-1,1.668190956E-1,-3.944973946E-1,6.822807959E-1
7.449517693E0,5.114845037E-1,1.567530632E-1,-3.900136948E-1,6.620412393E-1
7.459536154E0,2.948682308E-1,1.898341179E-1,-4.335770607E-1,5.576498305E-1
7.470064693E0,2.779961824E-1,1.788487434E-1,-4.279317856E-1,5.407350216E-1
7.479527385E0,2.463089824E-1,2.639985085E-1,-4.061689377E-1,5.434487402E-1
7.489551462E0,9.854823351E-2,4.012842178E-1,-2.043347359E-1,4.609701315E-1
7.499570462E0,8.277028799E-2,3.895111084E-1,-1.978101730E-1,4.446332069E-1
7.509530539E0,4.819631577E-4,5.085415840E-1,9.211349487E-2,5.168168640E-1
7.519722923E0,-1.218569279E-2,4.997830391E-1,9.692335129E-2,5.092403296E-1
7.529551693E0,-2.304403186E-1,6.936001778E-1,3.704915047E-1,8.194192468E-1
7.539534770E0,-2.471820712E-1,6.832599640E-1,3.760404587E-1,8.181378742E-1
7.549662154E0,-1.483929157E-1,8.935551643E-1,5.213541985E-1,1.045117931E0
7.559530539E0,-5.500280857E-2,1.076884270E0,7.321715355E-1,1.303372624E0
7.569727693E0,-8.146399260E-2,1.062345982E0,7.399072647E-1,1.297180838E0
7.579529462E0,5.817884207E-2,1.195383072E0,1.247903824E0,1.729042920E0
7.589531693E0,2.621728182E-2,1.180583000E0,1.255504131E0,1.723587593E0
7.599700462E0,2.806364894E-1,1.374447823E0,1.659905434E0,2.173280862E0
7.609533847E0,2.449611425E-1,1.356560707E0,1.669826508E0,2.165313714E0
7.619528231E0,5.010557175E-1,1.662255287E0,1.361972809E0,2.206608122E0
7.629555000E0,6.880270839E-1,1.947175026E0,4.158735275E-1,2.106614023E0
7.639528000E0,6.536369920E-1,1.906022072E0,4.446992874E-1,2.063472537E0
7.649544231E0,8.445960283E-1,1.596466064E0,6.560721397E-1,1.921581900E0
7.660206308E0,8.112789392E-1,1.565440178E0,6.778683662E-1,1.888989674E0
7.669907231E0,2.266599834E-1,9.432640076E-1,3.049895763E0,3.200466513E0
7.679537462E0,-5.998230577E-1,3.341817856E-1,3.232658863E0,3.304776617E0
7.689554539E0,-5.935924649E-1,3.414945602E-1,3.227339745E0,3.299195717E0
7.699619154E0,-9.216608405E-1,-2.174448967E-1,2.112873077E0,2.315377643E0
7.710262077E0,-9.038969278E-1,-2.234787941E-1,2.118973732E0,2.314524164E0
7.719765308E0,-5.916217566E-1,-7.052388191E-1,1.111041069E0,1.442841070E0
7.729697770E0,-5.919200182E-1,-7.172455788E-1,1.120536804E0,1.456163884E0
7.739767308E0,-5.628650784E-1,-1.057091236E0,4.478592873E-1,1.278607414E0
7.749585231E0,-3.408349156E-1,-1.401206970E0,4.547133446E-1,1.512056096E0
7.759538077E0,-3.618088365E-1,-1.408932209E0,4.593734741E-1,1.525457175E0
7.769622616E0,-1.026334763E-1,-1.605882168E0,7.996463776E-2,1.611144162E0
7.779523847E0,-1.187660694E-1,-1.616938591E0,8.775806427E-2,1.623667843E0
7.789556847E0,3.001973033E-2,-1.628896236E0,-2.838644981E-1,1.653717989E0
7.799624000E0,2.036333084E-2,-1.644913673E0,-2.715315819E-1,1.667298731E0
7.810142770E0,2.118935585E-1,-1.616141319E0,-5.413222313E-1,1.717510233E0
7.819696847E0,4.986538291E-1,-1.551330090E0,-1.021926880E0,1.923438389E0
7.829570539E0,4.859412909E-1,-1.566417217E0,-1.010327339E0,1.926282214E0
7.839529154E0,5.793439150E-1,-1.620234966E0,-1.007404327E0,1.993906767E0
7.849553923E0,5.653557777E-1,-1.628815174E0,-1.001122952E0,1.993718433E0
7.859576693E0,6.112907529E-1,-1.609236717E0,-9.381880760E-1,1.960488731E0
7.869684154E0,2.506625950E-1,-1.578779697E0,-4.579062462E-1,1.662845513E0
7.879518077E0,2.462043762E-1,-1.570302963E0,-4.651331902E-1,1.656145186E0
7.889548847E0,1.006771624E-1,-1.360970974E0,-3.211736679E-1,1.401973754E0
7.899555923E0,1.005577445E-1,-1.346209526E0,-3.332915306E-1,1.390494586E0
7.909522539E0,3.773093224E-2,-1.093184948E0,-3.468785286E-1,1.147519790E0
7.919532770E0,4.002958536E-2,-1.078949451E0,-3.583540916E-1,1.137607991E0
7.929608077E0,2.320411354E-1,-8.425483704E-1,-2.896213531E-1,9.206581196E-1
7.939533231E0,6.375697851E-1,-7.927646637E-1,1.748900414E-1,1.032258480E0
7.949521385E0,6.268860698E-1,-7.689909935E-1,1.552834511E-1,1.004214241E0
7.959524693E0,9.494433403E-1,-7.049918175E-1,3.987579346E-1,1.247983978E0
7.970557923E0,9.381265640E-1,-6.796007156E-1,3.781309128E-1,1.218573580E0
7.979831616E0,7.950354815E-1,-6.163625717E-1,4.644894600E-1,1.108031902E0
7.989840154E0,9.434596300E-1,-5.392246246E-1,3.183336258E-1,1.132349578E0
8.000581770E0,8.392804861E-1,-5.217905045E-1,3.048157692E-1,1.034200038E0
8.009536539E0,9.301362038E-1,-4.708700180E-1,1.547584534E-1,1.053955459E0
8.019583770E0,9.303581715E-1,-4.558157921E-1,1.431679726E-1,1.045863964E0
8.029532693E0,8.433902860E-1,-3.072776794E-1,-5.341339111E-2,8.992106189E-1
8.039605231E0,8.451155424E-1,-2.949123383E-1,-6.279993057E-2,8.972944882E-1
8.049591693E0,8.920046091E-1,-1.174130440E-1,-3.269195557E-1,9.572535931E-1
8.059533539E0,9.187202454E-1,-5.660915375E-2,-2.484555244E-1,9.534052827E-1
8.070510770E0,9.255355597E-1,-4.642057419E-2,-2.558803558E-1,9.613769804E-1
8.079845539E0,7.790076733E-1,5.996561050E-2,-2.985959053E-1,8.364259346E-1
8.089636154E0,7.903454304E-1,6.997919083E-2,-3.056201935E-1,8.502627177E-1
8.099543693E0,7.714792490E-1,1.457014084E-1,-4.266481400E-1,8.935534496E-1
8.109842847E0,7.814723849E-1,1.538190842E-1,-4.322490692E-1,9.062001197E-1
8.120432385E0,8.876141310E-1,2.469677925E-1,-5.451421738E-1,1.070528807E0
8.129720770E0,1.056020260E0,2.653079033E-1,-4.162521362E-1,1.165689887E0
8.139549693E0,1.063074112E0,2.726154327E-1,-4.213390350E-1,1.175573190E0
8.149876539E0,1.307755709E0,2.682957649E-1,-3.384523392E-1,1.377228230E0
8.159694231E0,1.311091900E0,2.745661736E-1,-3.429389000E-1,1.382734842E0
8.169537923E0,1.405447006E0,4.537668228E-1,-2.703642845E-1,1.501426809E0
8.179522000E0,1.408284903E0,4.596428871E-1,-2.745680809E-1,1.506627220E0
8.189569462E0,1.294305086E0,5.704426765E-1,-1.009902954E-1,1.418037215E0
8.199604077E0,1.143685579E0,6.620278358E-1,4.628467560E-1,1.400187373E0
8.209551385E0,1.153755069E0,6.655578613E-1,4.608287811E-1,1.409425837E0
8.219529693E0,1.132155418E0,8.054966927E-1,4.759435654E-1,1.468714775E0
8.229558616E0,1.147878170E0,8.036589622E-1,4.782805443E-1,1.480622943E0
8.239617693E0,9.301418066E-1,1.013071537E0,3.050718307E-1,1.408739345E0
8.249687770E0,7.467672229E-1,1.151756763E0,2.708253860E-1,1.399125197E0
8.259523539E0,7.622012496E-1,1.138143063E0,2.820134163E-1,1.398517766E0
8.269524539E0,5.925311446E-1,1.237499237E0,2.571787834E-1,1.395936405E0
8.280094077E0,6.107544303E-1,1.220446110E0,2.713069916E-1,1.391444273E0
8.290291539E0,4.340737462E-1,1.229082108E0,5.563478470E-1,1.417245840E0
8.299547000E0,4.553062916E-1,1.213000298E0,5.701861382E-1,1.415551403E0
8.310371616E0,1.753263772E-1,1.114189625E0,1.120875835E0,1.590132226E0
8.319529231E0,1.278880239E-1,1.105982304E0,1.782910347E0,2.101980378E0
8.329976231E0,1.453702450E-1,1.096921921E0,1.791369438E0,2.105558043E0
8.339623000E0,3.391866684E-1,1.020141602E0,2.332524300E0,2.568346957E0
8.350163847E0,3.525429964E-1,1.009882927E0,2.341639042E0,2.574378273E0
8.359541770E0,1.749368310E-1,9.756197929E-1,2.297316074E0,2.502018789E0
8.369564770E0,2.324022055E-1,8.599362373E-1,1.477834702E0,1.725542385E0
8.379543154E0,2.450625896E-1,8.356666565E-1,1.498006821E0,1.732748934E0
8.389554770E0,2.521370649E-1,4.576001167E-1,9.230012894E-1,1.060614136E0
8.399612077E0,2.659974098E-1,4.348468781E-1,9.424023628E-1,1.071432986E0
8.409573539E0,-7.692489624E-1,1.395478249E-1,1.179007053E0,1.414664340E0
8.419529385E0,-7.420976162E-1,1.351828575E-1,1.185452938E0,1.405091437E0
8.429567000E0,-1.877321601E0,-2.688651085E-1,1.979565620E0,2.741405640E0
8.439531385E0,-1.727751017E0,-9.132099152E-1,2.538150787E0,3.203324108E0
8.450056385E0,-1.683504939E0,-8.826322556E-1,2.519620419E0,3.156218565E0
8.459521924E0,-1.496883631E0,-1.410675526E0,2.182030201E0,2.998653338E0
8.469546231E0,-1.465414166E0,-1.378881931E0,2.161608696E0,2.953185774E0
8.479516847E0,-1.150644898E0,-1.617345810E0,1.343078613E0,2.396591603E0
8.489586231E0,-1.134547114E0,-1.594579220E0,1.327898979E0,2.364993814E0
8.499532385E0,-7.809942961E-1,-1.415327549E0,1.884398460E-1,1.627456217E0
8.509532154E0,-6.609321833E-1,-1.266503811E0,-4.074602127E-1,1.485559517E0
8.519586770E0,-6.519806385E-1,-1.266545773E0,-4.061298370E-1,1.481269183E0
8.529521847E0,-2.174228430E-1,-1.145594597E0,-3.982262611E-1,1.232170373E0
8.539528154E0,-2.069414854E-1,-1.146809578E0,-3.957543373E-1,1.230698372E0
8.549519077E0,1.513563395E-1,-9.376034737E-1,-6.994485855E-1,1.179507244E0
8.559519077E0,3.347424865E-1,-8.172798157E-1,-4.701266289E-1,1.000508809E0
8.569554308E0,3.354136348E-1,-8.115482330E-1,-4.744038582E-1,9.980840955E-1
8.579540616E0,3.231866956E-1,-8.783731461E-1,-3.520488739E-3,9.359494739E-1
8.589546847E0,3.204572797E-1,-8.618044853E-1,-1.651620865E-2,9.196046021E-1
8.599728154E0,6.312870979E-2,-8.289227486E-1,5.111589432E-1,9.759004162E-1
8.609535924E0,6.277275085E-2,-8.071269989E-1,4.947142601E-1,9.487552950E-1
8.619680077E0,-1.819173098E-1,-6.981940269E-1,5.477013588E-1,9.058397128E-1
8.629549770E0,-5.214432478E-1,-4.969177246E-1,3.548765182E-2,7.211724198E-1
8.639526385E0,-5.068849325E-1,-4.894657135E-1,3.214693069E-2,7.053668866E-1
8.649564154E0,-6.969882250E-1,-2.358403206E-1,-9.051508904E-1,1.166495339E0
8.659532770E0,-6.813220978E-1,-2.389392853E-1,-9.004287720E-1,1.154150665E0
8.669531308E0,-4.069762230E-1,-2.695827484E-1,-9.861598015E-1,1.100370691E0
8.679529847E0,-4.028712511E-1,-2.714695930E-1,-9.841117859E-1,1.097486671E0
8.689518693E0,1.370768547E-1,-4.585804939E-1,-4.853758812E-1,6.816713868E-1
8.699528770E0,7.810350657E-1,-5.661101341E-1,-4.198079109E-1,1.052014800E0
8.709816385E0,7.555426359E-1,-5.590872765E-1,-4.288721085E-1,1.033128522E0
8.719590770E0,8.000618815E-1,-5.681819916E-1,-5.242710114E-1,1.112560058E0
8.729539924E0,7.736372352E-1,-5.646390915E-1,-5.307097435E-1,1.094981601E0
8.739630924E0,8.242864609E-1,-4.588413239E-1,-8.420042992E-1,1.264497833E0
8.750304770E0,6.798496842E-1,-3.374733925E-1,-8.833074570E-1,1.164609783E0
8.759521693E0,6.550229192E-1,-3.403749466E-1,-8.845262527E-1,1.152083687E0
8.769532462E0,3.890067935E-1,-2.446088791E-1,-6.933984756E-1,8.318420734E-1
8.780158539E0,3.679762483E-1,-2.456779480E-1,-6.953411102E-1,8.241743948E-1
8.789535000E0,3.252704740E-1,-1.601896286E-1,-7.487335205E-1,8.319035299E-1
8.799831077E0,3.061688542E-1,-1.614184380E-1,-7.502112389E-1,8.262034751E-1
8.809540847E0,1.982573271E-1,-9.282922745E-2,-8.366250992E-1,8.647917609E-1
8.819622616E0,1.108140349E-1,2.152013779E-2,-7.577648163E-1,7.661268717E-1
8.829545308E0,9.032404423E-2,2.147674561E-2,-7.601442337E-1,7.657930135E-1
8.839529308E0,1.233150363E-1,1.237349510E-1,-6.808643341E-1,7.029176180E-1
8.849535308E0,9.115970135E-2,1.269583702E-1,-6.868243217E-1,7.043835375E-1
8.859514616E0,2.878838181E-1,1.284613609E-1,-5.001201630E-1,5.911849046E-1
8.869519231E0,2.588620186E-1,1.325750351E-1,-5.061893463E-1,5.837922053E-1
8.879648693E0,3.350180984E-1,1.307435036E-1,-1.828002930E-1,4.034190589E-1
8.890388308E0,4.343774915E-1,3.185153008E-1,-2.483577728E-1,5.931419604E-1
8.899824231E0,4.055603147E-1,3.211164474E-1,-2.529659271E-1,5.758356553E-1
8.909558077E0,4.789841175E-1,4.555954933E-1,-1.758933067E-1,6.840551832E-1
8.919524770E0,4.528027773E-1,4.539079666E-1,-1.769375801E-1,6.651087915E-1
8.929595231E0,2.848479450E-1,6.254639626E-1,2.649402618E-2,6.877829989E-1
8.939654231E0,3.181148767E-1,7.773752213E-1,2.592291832E-1,8.790387243E-1
8.949548308E0,2.975887060E-1,7.706084251E-1,2.625970840E-1,8.668065594E-1
8.960087770E0,2.098079026E-1,8.922495842E-1,5.507073402E-1,1.069302226E0
8.969533154E0,1.899285614E-1,8.839774132E-1,5.553526878E-1,1.061086958E0
8.981636154E0,1.179498434E-1,9.066219330E-1,9.013752937E-1,1.283881971E0
8.989533077E0,1.001935601E-1,8.990364075E-1,9.057760239E-1,1.280131016E0
8.999529693E0,-6.272470951E-2,8.929576874E-1,1.576163769E0,1.812622423E0
9.009671154E0,1.947802007E-1,1.054088593E0,2.218475819E0,2.463874397E0
9.019576308E0,1.746589243E-1,1.048171043E0,2.221645355E0,2.462696969E0
9.030683539E0,4.380041063E-1,1.457039356E0,2.044239044E0,2.548278743E0
9.039672385E0,4.116140902E-1,1.442389965E0,2.053726196E0,2.543168547E0
9.049582231E0,4.435158968E-1,1.783390522E0,1.577826023E0,2.422131925E0
9.059563000E0,4.160671830E-1,1.759264469E0,1.594703674E0,2.410643728E0
9.070028847E0,4.635115862E-1,1.853193760E0,1.071005344E0,2.190027979E0
9.079535770E0,1.523399502E-1,1.436841011E0,1.569277763E0,2.133155468E0
9.089595154E0,1.396612674E-1,1.424806118E0,1.578006744E0,2.130653193E0
9.100093924E0,1.338768154E-1,7.724356651E-1,2.386489868E0,2.511954169E0
9.110511308E0,1.210145801E-1,7.823147774E-1,2.378431797E0,2.506710744E0
9.119562616E0,5.217781067E-1,1.098480225E-1,2.665032864E0,2.717851936E0
9.129533539E0,1.050133824E0,-4.122014046E-1,1.753688812E0,2.085213538E0
9.139536385E0,1.009130597E0,-3.882741928E-1,1.734510422E0,2.043924611E0
9.149577770E0,9.276305437E-1,-8.544597626E-1,1.019143581E0,1.621497318E0
9.159973770E0,8.855947256E-1,-8.357639313E-1,1.004452705E0,1.578513416E0
9.170072616E0,7.106864452E-1,-1.367663860E0,9.998731613E-1,1.837206030E0
9.179919847E0,6.823725104E-1,-1.349549770E0,9.862313271E-1,1.805427666E0
9.189855077E0,6.368359327E-1,-1.667023659E0,1.061437130E0,2.076337320E0
9.199540462E0,9.806326032E-1,-1.585591793E0,1.524448395E-1,1.870556352E0
9.209565077E0,9.623031020E-1,-1.585336208E0,1.522331238E-1,1.860777547E0
9.219739847E0,1.161267042E0,-1.350816727E0,-7.977886200E-1,1.951848779E0
9.229709462E0,1.136604667E0,-1.364428520E0,-7.876725197E-1,1.942669131E0
9.239531462E0,1.268940806E0,-1.284877777E0,-1.085807800E0,2.107154539E0
9.250115462E0,1.406373501E0,-1.140446186E0,-8.899264336E-1,2.017541322E0
9.260431077E0,1.378681779E0,-1.151344299E0,-8.814101219E-1,2.000810072E0
9.269525847E0,1.426142216E0,-1.127063751E0,-3.401465416E-1,1.849284723E0
9.279554077E0,1.404006481E0,-1.130788803E0,-3.368878365E-1,1.833960450E0
9.289565770E0,1.273223400E0,-1.080402851E0,-3.547344208E-1,1.707104173E0
9.299529770E0,1.257558942E0,-1.082666397E0,-3.526272774E-1,1.696457196E0
9.309723770E0,7.525777817E-1,-9.363074303E-1,-4.506211281E-1,1.283005971E0
9.319697770E0,5.157120526E-2,-8.052606583E-1,-4.565992355E-1,9.271392446E-1
9.329538385E0,5.378136039E-2,-8.081998825E-1,-4.544572830E-1,9.287684894E-1
9.339756000E0,1.071088165E-1,-7.508883476E-1,-4.751725197E-1,8.950388442E-1
9.349530770E0,1.065417081E-1,-7.487053871E-1,-4.767932892E-1,8.940037656E-1
9.359529770E0,3.294382691E-1,-7.800397873E-1,-5.311417580E-1,9.995515044E-1
9.369523077E0,3.212143779E-1,-7.734169960E-1,-5.358514786E-1,9.942280087E-1
9.379520308E0,7.048976421E-1,-7.978701591E-1,-5.619916916E-1,1.203873805E0
9.389560847E0,7.558219433E-1,-7.649607658E-1,-6.295752525E-1,1.246112668E0
9.399521000E0,7.390930653E-1,-7.516517639E-1,-6.388592720E-1,1.232631373E0
9.409781847E0,8.184334040E-1,-6.028819084E-1,-5.664167404E-1,1.163669952E0
9.419543231E0,8.032461405E-1,-5.875558853E-1,-5.771074295E-1,1.150425689E0
9.430481924E0,1.054108381E0,-4.945464134E-1,-5.897631645E-1,1.305197772E0
9.439616462E0,1.002248526E0,-4.369149208E-1,-2.450952530E-1,1.120476880E0
9.449541539E0,9.960597754E-1,-4.220232964E-1,-2.556586266E-1,1.111575491E0
9.461439770E0,9.984656572E-1,-3.554139137E-1,-4.863548279E-2,1.060951521E0
9.469532462E0,9.920746088E-1,-3.469333649E-1,-5.446100235E-2,1.052397639E0
9.479751847E0,7.899438143E-1,-1.833367348E-1,-1.522288322E-1,8.251043603E-1
9.489528077E0,7.927228212E-1,-1.688303947E-1,-1.627435684E-1,8.266792864E-1
9.499561154E0,5.699679852E-1,-3.651142120E-2,-2.903575897E-1,6.407059527E-1
9.509530924E0,4.347191453E-1,1.027102470E-1,-1.308050156E-1,4.654461110E-1
9.519544770E0,4.436331391E-1,1.074948311E-1,-1.345958710E-1,4.759007768E-1
9.530205539E0,3.436208069E-1,2.497754097E-1,-1.216793060E-1,4.418923712E-1
9.539520539E0,3.555704355E-1,2.508935928E-1,-1.229596138E-1,4.522134409E-1
9.549524077E0,4.460417926E-1,3.424658775E-1,-2.847599983E-1,6.303367471E-1
9.560072231E0,4.602032304E-1,3.382654190E-1,-2.823004723E-1,6.371060066E-1
9.569643924E0,6.353712082E-1,3.849563599E-1,-5.628843307E-1,9.320551169E-1
9.579526385E0,6.651932001E-1,3.718681335E-1,-2.493243217E-1,8.018294829E-1
9.589533001E0,6.766089201E-1,3.662395477E-1,-2.456655502E-1,8.076401424E-1
9.599546693E0,6.359352469E-1,3.970799446E-1,1.312479973E-1,7.611255859E-1
9.609535308E0,6.488643885E-1,3.943262100E-1,1.328430176E-1,7.708212645E-1
9.619543539E0,8.768771887E-1,5.050454140E-1,8.566141129E-2,1.015540423E0
9.629539385E0,6.387065649E-1,6.951928139E-1,-3.965377808E-2,9.448870550E-1
9.639521616E0,6.497619152E-1,6.855683327E-1,-3.300952911E-2,9.451370875E-1
9.656202462E0,3.486634493E-1,8.343315125E-1,1.500420570E-1,9.166176370E-1
9.659521385E0,3.669261336E-1,8.236489296E-1,1.573700905E-1,9.153128930E-1
9.669935001E0,2.207101583E-1,9.240546227E-1,1.380853653E-1,9.600299411E-1
9.679614924E0,2.434549183E-1,9.114890099E-1,1.468548775E-1,9.548030516E-1
9.690461924E0,-1.671070606E-2,9.223093987E-1,4.483876228E-1,1.025663363E0
9.699537616E0,-9.391523153E-2,1.001330853E0,8.391413689E-1,1.309825097E0
9.709535539E0,-6.632445008E-2,9.895558357E-1,8.476147652E-1,1.304634230E0
9.719548308E0,-1.632188708E-1,1.219741344E0,1.001718521E0,1.586773249E0
9.729843308E0,-1.361617595E-1,1.204632282E0,1.012911320E0,1.579768433E0
9.739521924E0,5.243624002E-2,1.625875473E0,5.089292526E-1,1.704473408E0
9.749520077E0,7.382299006E-2,1.602763176E0,5.263671875E-1,1.688597657E0
9.759521077E0,3.924879432E-1,1.590531826E0,6.651887894E-1,1.768138683E0
9.769536077E0,1.929535568E-1,1.055006027E0,1.729989052E0,2.035468229E0
9.780185154E0,2.005729377E-1,1.059066772E0,1.727008820E0,2.035782747E0
9.790221077E0,-2.876756787E-1,5.818476677E-1,2.933537960E0,3.004488137E0
9.799612462E0,-2.734001279E-1,6.090555191E-1,2.913388729E0,2.988901160E0
9.809519847E0,-8.177820444E-1,3.065104485E-1,2.995120525E0,3.119849850E0
9.819524308E0,-1.156971812E0,6.364917755E-2,2.066587448E0,2.369265429E0
9.829527616E0,-1.136721134E0,8.442544937E-2,2.051824093E0,2.347178029E0
9.839525231E0,-1.353638053E0,-1.758527756E-1,1.361734390E0,1.928102883E0
9.849548847E0,-1.329502583E0,-1.611528397E-1,1.351741791E0,1.902827692E0
9.859564693E0,-1.257159948E0,-4.963040352E-1,7.242693901E-1,1.533406332E0
9.869529924E0,-1.227696657E0,-4.845261574E-1,7.167968750E-1,1.501932901E0
9.879520001E0,-1.247957945E0,-8.449053764E-1,-4.910421371E-2,1.507871132E0
9.889534770E0,-1.068207502E0,-1.049054146E0,-7.026715279E-1,1.653883051E0
9.899811231E0,-1.039405584E0,-1.042275429E0,-7.061948776E-1,1.632609336E0
9.909548231E0,-6.105380058E-1,-1.086888313E0,-1.125068665E0,1.679244581E0
9.919528077E0,-5.956232548E-1,-1.081098557E0,-1.128436089E0,1.672396232E0
9.929522924E0,-4.095860124E-1,-1.006649494E0,-1.129449368E0,1.567405429E0
9.939527847E0,-4.008579254E-1,-9.991021156E-1,-1.134347916E0,1.563853352E0
9.949530616E0,-4.211288393E-1,-8.382897377E-1,-1.036713600E0,1.398161032E0
9.959534231E0,-6.027923822E-1,-5.650200844E-1,-1.313154697E0,1.551445007E0
9.969538539E0,-5.787295103E-1,-5.648627281E-1,-1.311825752E0,1.541066044E0
9.979532462E0,-5.221417546E-1,-4.102916718E-1,-1.137683868E0,1.317306286E0
9.989713308E0,-4.965351224E-1,-4.091477394E-1,-1.136803627E0,1.306243272E0
9.999667385E0,-4.740739465E-1,-4.019637108E-1,-5.965666771E-1,8.615176909E-1
1.000952823E1,-5.320842862E-1,-3.215408325E-1,-4.016518593E-1,7.401529644E-1
1.002365831E1,-5.075572133E-1,-3.032193184E-1,-4.127388000E-1,7.210475691E-1
1.002964338E1,-6.747294664E-1,-1.623344421E-1,-7.984828949E-1,1.057916470E0
1.003952554E1,-6.594098210E-1,-1.560640335E-1,-8.016796112E-1,1.049698763E0
1.004956662E1,-6.060388088E-1,-9.622097015E-3,-1.305638790E0,1.439468052E0
1.005973262E1,-5.931681395E-1,-5.235195160E-3,-1.307653904E0,1.435908974E0
1.006957531E1,-5.626770258E-1,3.388595581E-2,-1.037891388E0,1.181089424E0
1.007953000E1,-4.471401572E-1,-7.491588593E-3,-5.842261314E-1,7.357381441E-1
1.008952623E1,-4.448847771E-1,1.036882401E-2,-5.964398384E-1,7.441575493E-1
1.009957600E1,-3.267222643E-1,5.166530609E-3,-4.823336601E-1,5.825975375E-1
1.010953308E1,-3.256629109E-1,2.395486832E-2,-4.951653481E-1,5.931432282E-1
1.011969900E1,-2.098322511E-1,6.273651123E-2,-5.254325867E-1,5.692493712E-1
1.012952923E1,-2.120981216E-1,7.976818085E-2,-5.372266769E-1,5.830618134E-1
1.013952662E1,-2.698194981E-2,1.105008125E-1,-5.112304688E-1,5.237318468E-1
1.014986385E1,2.659582496E-1,6.554174423E-2,-5.423130989E-1,6.075631720E-1
1.015952292E1,2.514701486E-1,8.074283600E-2,-5.536904335E-1,6.134572009E-1
1.016952308E1,2.266604304E-1,1.097955704E-1,-5.076675415E-1,5.667065825E-1
1.017954262E1,2.101549506E-1,1.254749298E-1,-5.193710327E-1,5.741561903E-1
1.018963500E1,4.452335835E-2,1.716217995E-1,-1.363563538E-1,2.236725882E-1
1.019971608E1,-1.066709757E-1,2.397470474E-1,-3.335032463E-1,4.243604118E-1
1.020954538E1,-1.129399538E-1,2.490000725E-1,-3.400454521E-1,4.363340220E-1
1.021952046E1,-3.776293993E-1,2.800989151E-1,-5.206284523E-1,7.015079121E-1
1.022955931E1,-3.771998286E-1,2.813181877E-1,-5.213980675E-1,7.023358016E-1
1.023966077E1,-5.673900843E-1,3.401012421E-1,-7.085804939E-1,9.693743750E-1
1.024952092E1,-5.680072904E-1,3.408217430E-1,-7.090964317E-1,9.703656486E-1
1.025953000E1,-6.825402975E-1,4.887337685E-1,-7.202177048E-1,1.106090185E0
1.026953154E1,-5.354458690E-1,5.244603157E-1,-4.529690742E-1,8.757521816E-1
1.027961792E1,-5.443540215E-1,5.269160271E-1,-4.551949501E-1,8.838349636E-1
1.028961177E1,-4.575444460E-1,5.640096664E-1,-1.159152985E-1,7.354523644E-1
1.029954731E1,-4.694476724E-1,5.672273636E-1,-1.188154221E-1,7.458184120E-1
1.031060231E1,-5.160186291E-1,7.435731888E-1,-3.564896584E-1,9.727595742E-1
1.031954546E1,-5.275155902E-1,7.393064499E-1,-3.544335365E-1,9.749204360E-1
1.032957208E1,-5.498145223E-1,8.781046867E-1,-2.917666435E-1,1.076332488E0
1.033956446E1,-7.520333529E-1,9.708094597E-1,-1.528854370E-1,1.237497122E0
1.034956569E1,-7.620514631E-1,9.619927406E-1,-1.476850510E-1,1.236108142E0
1.035952315E1,-1.006682873E0,1.071289539E0,9.148597717E-2,1.472902362E0
1.036957962E1,-1.018127203E0,1.062786579E0,9.644603729E-2,1.474923778E0
1.038072923E1,-8.747438788E-1,1.108079910E0,5.880107880E-1,1.529305276E0
1.038956308E1,-5.201260448E-1,9.739322662E-1,1.138892174E0,1.586237859E0
1.039996569E1,-5.509837866E-1,9.713797569E-1,1.139022827E0,1.595159793E0
1.040957731E1,-4.870342910E-1,9.632573128E-1,1.714030266E0,2.025578141E0
1.041970815E1,-5.216993093E-1,9.617595673E-1,1.713536263E0,2.033066196E0
1.042957385E1,-3.432278335E-1,1.305378437E0,1.641969681E0,2.125531144E0
1.043953415E1,-3.907265961E-1,1.290237904E0,1.650361061E0,2.130979294E0
1.044953538E1,-6.578823924E-1,1.603601933E0,1.165415764E0,2.088669984E0
1.045959362E1,-5.509908199E-1,1.838550091E0,4.353809357E-1,1.968099052E0
1.047021708E1,-5.648945570E-1,1.812302589E0,4.528036118E-1,1.951557749E0
1.047952300E1,-6.930890083E-1,1.540794849E0,1.326704025E0,2.148153792E0
1.049020115E1,-7.016475201E-1,1.535414696E0,1.330176353E0,2.149226992E0
1.049956108E1,-8.964762688E-1,6.674065590E-1,3.305654526E0,3.489477477E0
1.050954115E1,-4.259092808E-1,-2.370152473E-1,4.347902298E0,4.375137636E0
1.052062492E1,-4.517196417E-1,-1.748614311E-1,4.306111336E0,4.333269204E0
1.052952054E1,4.153230041E-2,-6.534943581E-1,3.094378471E0,3.162903402E0
1.053954638E1,5.018189549E-3,-6.164927483E-1,3.069941521E0,3.131234490E0
1.055017492E1,3.097849190E-1,-8.719048500E-1,1.192314148E0,1.509237487E0
1.055956362E1,2.637177110E-1,-8.632516861E-1,1.186663628E0,1.490946367E0
1.057054985E1,2.849828601E-1,-1.013829708E0,1.531543732E-1,1.064200249E0
1.057952638E1,2.516425550E-1,-1.065956593E0,-3.893342018E-1,1.162397760E0
1.058952338E1,2.270352393E-1,-1.078155994E0,-3.812003136E-1,1.165881223E0
1.059952023E1,6.061349809E-2,-1.100714684E0,-8.845987320E-1,1.413421992E0
1.061065254E1,4.764537513E-2,-1.120607853E0,-8.714761734E-1,1.420388244E0
1.061963069E1,-4.782629758E-2,-1.090255737E0,-1.104181767E0,1.552469742E0
1.062951808E1,-5.191794783E-2,-1.113457680E0,-1.088871479E0,1.558244068E0
1.063953577E1,4.395414889E-2,-1.094678402E0,-7.594060898E-1,1.333023023E0
1.064951777E1,2.786582708E-1,-1.000256538E0,-2.969331741E-1,1.079968928E0
1.066042200E1,2.678902745E-1,-1.009129047E0,-2.908058167E-1,1.083824089E0
1.066951777E1,-5.054114759E-2,-9.372553825E-1,-1.927089691E-2,9.388149057E-1
1.067953008E1,-5.413493514E-2,-9.403486252E-1,-1.712608337E-2,9.420612670E-1
1.068952769E1,-3.482609987E-1,-1.005395412E0,2.961950302E-1,1.104462383E0
1.069953400E1,-4.474398196E-1,-1.027441502E0,3.490962982E-1,1.173757495E0
1.071198946E1,-4.410865307E-1,-1.021882057E0,3.452568054E-1,1.165333655E0
1.071952731E1,-4.431052804E-1,-9.738430977E-1,3.534736633E-1,1.126790264E0
1.072952423E1,-4.403147697E-1,-9.652075768E-1,3.476848602E-1,1.116417272E0
1.073953031E1,-5.242254734E-1,-8.729624748E-1,2.909193039E-1,1.059013631E0
1.074984038E1,-5.280246735E-1,-8.608913422E-1,2.830286026E-1,1.048832279E0
1.075953485E1,-3.011612296E-1,-7.499518394E-1,9.961414337E-2,8.142781007E-1
1.076961277E1,-1.042067409E-1,-5.681681633E-1,-8.558940887E-2,5.839517562E-1
1.077970500E1,-1.134236157E-1,-5.596241951E-1,-9.097290039E-2,5.782043107E-1
1.078953854E1,1.797755957E-1,-5.049815178E-1,-1.023340225E-1,5.457085763E-1
1.079953762E1,1.689449698E-1,-4.964294434E-1,-1.076326370E-1,5.353217533E-1
1.080953508E1,3.395162225E-1,-3.490295410E-1,-2.455158234E-1,5.453172520E-1
1.081968700E1,3.309332430E-1,-3.431115150E-1,-2.491197586E-1,5.378689220E-1
1.082957231E1,3.743639588E-1,-2.238297462E-1,-2.061176300E-1,4.824236793E-1
1.083960915E1,3.352720439E-1,-1.770792007E-1,-6.542873383E-2,3.847665604E-1
1.085084015E1,3.332883120E-1,-1.725678444E-1,-6.829166412E-2,3.814767505E-1
1.085955385E1,4.799011052E-1,-1.579031944E-1,-1.436500549E-1,5.252369254E-1
1.086952338E1,4.792227745E-1,-1.558170319E-1,-1.449785233E-1,5.243588344E-1
1.087952292E1,3.473948240E-1,-5.981445312E-3,-5.847330093E-1,6.801702975E-1
1.088952446E1,9.244665504E-2,1.829128265E-1,-8.710708618E-1,8.948563753E-1
1.089952838E1,1.089873761E-1,1.749405861E-1,-8.663511276E-1,8.905317137E-1
1.090958385E1,-7.902994752E-2,2.907519341E-1,-7.664575577E-1,8.235530387E-1
1.091952708E1,-5.950421095E-2,2.845783234E-1,-7.628879547E-1,8.164089690E-1
1.092952100E1,-2.402087152E-1,3.241372108E-1,-7.047762871E-1,8.120805213E-1
1.093952600E1,-2.181212008E-1,3.193216324E-1,-7.020258904E-1,8.014883117E-1
1.094961323E1,4.861769825E-2,2.754597664E-1,-7.337474823E-1,7.852560928E-1
1.095966077E1,2.918363810E-1,2.176427841E-1,-5.380992889E-1,6.496827683E-1
1.096954015E1,3.009843826E-1,2.164287567E-1,-5.374174118E-1,6.528786103E-1
1.097952369E1,5.800911188E-1,1.364479065E-1,-2.668070793E-1,6.529240039E-1
1.098955185E1,5.848106146E-1,1.396918297E-1,-2.689785957E-1,6.586856209E-1
1.099952015E1,6.879355907E-1,1.750102043E-1,-2.595443726E-1,7.558089904E-1
1.100974554E1,6.939908862E-1,1.765613556E-1,-2.606143951E-1,7.620479810E-1
1.101968315E1,5.296273232E-1,3.009772301E-1,-1.870527267E-1,6.372449427E-1
1.103119885E1,4.841122329E-1,4.047894478E-1,-1.820640564E-1,6.567849509E-1
1.103955015E1,4.909266829E-1,4.013390541E-1,-1.798353195E-1,6.591075683E-1
1.104952238E1,3.839785159E-1,5.730066299E-1,-2.103886604E-1,7.211376339E-1
1.105952492E1,4.052608907E-1,5.667204857E-1,-2.062649727E-1,7.266042509E-1
1.106958046E1,2.704344988E-1,7.017302513E-1,-2.572808266E-1,7.948292820E-1
1.107979477E1,4.164450616E-2,8.972125053E-1,-3.115320206E-1,9.506717333E-1
1.108954331E1,7.137832791E-2,8.847026825E-1,-3.029794693E-1,9.378647349E-1
1.109951938E1,9.774725139E-2,1.009985447E0,-3.144941330E-1,1.062323721E0
1.110951800E1,1.269294918E-1,9.954991341E-1,-3.043594360E-1,1.048696471E0
1.111951854E1,-7.836216688E-2,1.082446575E0,-3.033828735E-2,1.085703288E0
1.112951708E1,-4.764850438E-2,1.068364620E0,-2.014446259E-2,1.069616352E0
1.113960762E1,-1.115940213E-1,1.049761772E0,3.473052979E-1,1.111338820E0
1.114959108E1,-3.159261644E-1,1.005292416E0,8.948316574E-1,1.382441998E0
1.115954938E1,-2.766932845E-1,9.946436882E-1,9.035043716E-1,1.371931263E0
1.116951800E1,-3.898169100E-1,9.344754219E-1,1.809739113E0,2.073730261E0
1.117960346E1,-3.471296430E-1,9.289164543E-1,1.815542221E0,2.068714172E0
1.118952838E1,-5.072622299E-1,9.243454933E-1,2.157652855E0,2.401498574E0
1.119953669E1,-4.626187682E-1,9.160046577E-1,2.165948868E0,2.396750958E0
1.120952454E1,-2.689868808E-1,9.375009537E-1,1.069746017E0,1.447625132E0
1.121952508E1,-4.398512840E-2,6.990947723E-1,4.077320099E-1,8.105020568E-1
1.122979100E1,-1.638418436E-2,6.716933250E-1,4.287290573E-1,7.970250743E-1
1.123952523E1,-1.650056839E-1,3.429131508E-1,5.017271042E-1,6.297192960E-1
1.124952277E1,-1.348429322E-1,3.308243752E-1,5.125722885E-1,6.247861510E-1
1.126079485E1,-9.851115346E-1,-3.714561462E-2,1.421499252E0,1.729879954E0
1.127108877E1,-1.765514374E0,-5.575203896E-1,2.041447639E0,2.755971417E0
1.127952362E1,-1.694899082E0,-5.270967484E-1,2.027136803E0,2.694401139E0
1.128951723E1,-2.088652611E0,-1.104615688E0,2.488126755E0,3.431241801E0
1.129952885E1,-2.012558460E0,-1.061408520E0,2.467333794E0,3.356294929E0
1.130957108E1,-1.933573008E0,-1.306161404E0,2.055333138E0,3.109526732E0
1.131991623E1,-1.862335443E0,-1.265085697E0,2.037238121E0,3.036292853E0
1.133024315E1,-1.532047153E0,-1.353201389E0,9.701995850E-1,2.262655456E0
1.133951862E1,-1.223863006E0,-1.327801228E0,1.245231628E-1,1.810083637E0
1.134952154E1,-1.184518456E0,-1.311920166E0,1.200284958E-1,1.771616588E0
1.135952077E1,-7.836903334E-1,-1.244557858E0,-3.309946060E-1,1.507531833E0
1.136953985E1,-7.514772415E-1,-1.234764576E0,-3.322496414E-1,1.483155901E0
1.137954085E1,-6.915293932E-1,-1.095769882E0,-2.712326050E-1,1.323817080E0
1.138961946E1,-2.893968821E-1,-8.892812729E-1,-5.650973320E-1,1.092660392E0
1.139952146E1,-2.552982569E-1,-8.869614601E-1,-5.607399940E-1,1.079957024E0
1.140977369E1,3.813064098E-2,-7.240457535E-1,-5.887932777E-1,9.340094875E-1
1.141952223E1,6.923377514E-2,-7.222161293E-1,-5.843796730E-1,9.316056329E-1
1.142951954E1,2.387001514E-1,-6.256580353E-1,3.517627716E-2,6.705692432E-1
1.143951938E1,2.609161139E-1,-6.147494316E-1,3.220272064E-2,6.686038419E-1
1.144952192E1,3.380930424E-1,-6.823768616E-1,7.549562454E-1,1.072335777E0
1.145963331E1,2.252098322E-1,-7.489905357E-1,1.092155457E0,1.343320450E0
1.146953554E1,2.362816334E-1,-7.263684273E-1,1.079718590E0,1.322585474E0
1.147967069E1,-2.240204811E-2,-7.933554649E-1,7.889022827E-1,1.119053867E0
1.148969608E1,-5.260348320E-3,-7.766952515E-1,7.815999985E-1,1.101899153E0
1.149951723E1,-3.713688850E-1,-6.521596909E-1,1.830520630E-1,7.724863552E-1
1.150953585E1,-3.538659811E-1,-6.445369720E-1,1.816930771E-1,7.574043934E-1
1.151958669E1,-4.007816315E-2,-5.521202087E-1,-1.613521576E-1,5.766086219E-1
1.152951992E1,4.328851700E-1,-4.907755852E-1,-5.088462830E-1,8.289600624E-1
1.153961231E1,4.205361605E-1,-4.868860245E-1,-5.137805939E-1,8.233341738E-1
1.155035085E1,7.695640922E-1,-4.592390060E-1,-6.698431969E-1,1.118847293E0
1.155965792E1,7.482395768E-1,-4.553322792E-1,-6.764760017E-1,1.106711222E0
1.156955877E1,1.033893824E0,-5.261526108E-1,-4.510555267E-1,1.244678310E0
1.157954946E1,1.268671632E0,-5.386409760E-1,-2.277402878E-1,1.396970812E0
1.158952485E1,1.247669935E0,-5.318131447E-1,-2.359218597E-1,1.376649778E0
1.159960831E1,1.086928010E0,-3.891668320E-1,-7.471656799E-2,1.156912221E0
1.160955185E1,1.060931087E0,-3.834662437E-1,-8.297348022E-2,1.131152390E0
1.161952769E1,9.992341995E-1,-2.385773659E-1,-1.327514648E-2,1.027406626E0
1.162954754E1,9.789556265E-1,-2.362051010E-1,-1.830387115E-2,1.007214972E0
1.163964362E1,8.773412108E-1,-5.460405350E-2,-2.456455231E-1,9.127162351E-1
1.164977069E1,8.423178196E-1,5.062103271E-3,-2.645831108E-1,8.829094838E-1
1.166010146E1,8.160431385E-1,1.838207245E-3,-2.669901848E-1,8.586114032E-1
1.166952638E1,6.431370378E-1,5.499649048E-2,-2.861804962E-1,7.060801227E-1
1.167952208E1,6.259602904E-1,5.237960815E-2,-2.873535156E-1,6.907546247E-1
1.168967377E1,2.383487225E-1,1.160244942E-1,-1.547040939E-1,3.069285803E-1
1.169951938E1,2.250051498E-1,1.155166626E-1,-1.565179825E-1,2.974378853E-1
1.170953246E1,2.828131914E-1,1.026468277E-1,5.084419250E-2,3.051307988E-1
1.171970292E1,1.989618540E-1,2.126450539E-1,1.633749008E-1,3.339088146E-1
1.172964385E1,1.789578199E-1,2.125492096E-1,1.603603363E-1,3.208091415E-1
1.173955777E1,3.579456210E-1,3.051867485E-1,8.721065521E-2,4.784033000E-1
1.174962354E1,3.321855664E-1,3.017516136E-1,8.554267883E-2,4.568575673E-1
1.175952269E1,5.523276329E-1,4.322643280E-1,-1.739568710E-1,7.226197176E-1
1.176957969E1,5.147601366E-1,6.238460541E-1,-3.569855690E-1,8.840817801E-1
1.177962285E1,4.844744205E-1,6.108369827E-1,-3.529915810E-1,8.558272839E-1
1.178953838E1,4.171051979E-1,7.970590591E-1,-5.884943008E-1,1.074990899E0
1.179958608E1,3.898451328E-1,7.809524536E-1,-5.818853378E-1,1.049026458E0
1.180965869E1,1.972760558E-1,9.204950333E-1,-4.564476013E-1,1.046218601E0
1.181952185E1,1.763165593E-1,9.063715935E-1,-4.500532150E-1,1.027202459E0
1.182951954E1,3.377544880E-2,9.226617813E-1,2.913303375E-1,9.681523171E-1
1.183953646E1,-1.713864207E-1,9.801950455E-1,7.294187546E-1,1.233777675E0
1.184952585E1,-1.962589025E-1,9.686880112E-1,7.339401245E-1,1.231073567E0
1.185952146E1,-3.284582496E-1,1.046604156E0,8.902902603E-1,1.412756819E0
1.186957154E1,-3.539915681E-1,1.028505802E0,8.991966248E-1,1.411272045E0
1.187952262E1,-3.047644496E-1,1.093794346E0,1.055153847E0,1.550037768E0
1.188963238E1,-3.338260651E-1,1.071485043E0,1.066725731E0,1.548361658E0
1.189952700E1,3.247833252E-2,1.165981293E0,1.068623543E0,1.581936627E0
1.190977854E1,4.583791196E-1,1.402404308E0,1.084657669E0,1.831210398E0
1.191953077E1,4.139539897E-1,1.371392727E0,1.101368904E0,1.806955832E0
1.192951738E1,7.457063198E-1,1.742939472E0,5.878410339E-1,1.984810570E0
1.194152538E1,6.785060167E-1,1.694387436E0,6.156749725E-1,1.926233337E0
1.194973192E1,5.441839695E-1,1.742998123E0,3.694324493E-1,1.862970473E0
1.195954077E1,-2.089685202E-2,1.343904972E0,1.439557076E0,1.969477552E0
1.196953077E1,-4.210805893E-2,1.331206799E0,1.446980476E0,1.966630908E0
1.197957823E1,-5.366793275E-2,5.127182007E-1,3.006320953E0,3.050200956E0
1.198956092E1,-6.841498613E-2,5.286707878E-1,2.994388580E0,3.041469445E0
1.199977462E1,2.665847242E-1,-2.759528160E-1,3.697705269E0,3.717558557E0
1.200953277E1,2.457309365E-1,-2.461662292E-1,3.676217079E0,3.692635037E0
1.201964915E1,4.722326994E-1,-7.102708817E-1,2.580779076E0,2.718070839E0
1.202953569E1,3.668401837E-1,-1.023248672E0,1.232649803E0,1.643482614E0
1.203968408E1,3.369584382E-1,-1.025494576E0,1.232830048E0,1.638612230E0
1.205057654E1,5.409631729E-1,-1.293404579E0,5.352706909E-1,1.500683602E0
1.205953000E1,5.119315386E-1,-1.303143501E0,5.407810211E-1,1.500900063E0
1.206967685E1,7.011286020E-1,-1.569362402E0,2.571039200E-1,1.737982189E0
1.207953269E1,6.774016023E-1,-1.580062151E0,2.636642456E-1,1.739249311E0
1.208955454E1,1.080178022E0,-1.587724209E0,-5.359334946E-1,1.993709466E0
1.210150392E1,1.360713482E0,-1.512067318E0,-7.552456856E-1,2.169858244E0
1.211011692E1,1.340847492E0,-1.518467903E0,-7.512269020E-1,2.160545910E0
1.211952616E1,1.610768437E0,-1.441547394E0,-4.960246086E-1,2.217808436E0
1.212952838E1,1.578689694E0,-1.452437401E0,-4.888787270E-1,2.200190438E0
1.214071654E1,1.432366490E0,-1.403333187E0,-1.746468544E-1,2.012838623E0
1.214961000E1,8.774823546E-1,-1.262891769E0,-3.611116409E-1,1.579643163E0
1.215956577E1,8.709055185E-1,-1.267295361E0,-3.580598831E-1,1.578835277E0
1.216970016E1,1.495724916E-1,-1.153001308E0,-5.106573105E-1,1.269864101E0
1.217953085E1,1.536834836E-1,-1.153538227E0,-5.102615356E-1,1.270683237E0
1.219025877E1,-3.119032085E-1,-1.081210136E0,-2.927918434E-1,1.162766543E0
1.219964977E1,-3.017372489E-1,-1.077578545E0,-2.952618599E-1,1.157324696E0
1.221047638E1,-2.202185392E-1,-1.035115242E0,1.050472260E-1,1.063482341E0
1.221955431E1,-3.534534574E-2,-8.901267052E-1,-3.760242462E-2,8.916214371E-1
1.223210246E1,-4.164264351E-2,-8.705687523E-1,-5.124473572E-2,8.730693473E-1
1.223952300E1,3.861866146E-2,-8.136897087E-1,-2.114195824E-1,8.415940725E-1
1.225017446E1,3.105295636E-2,-7.992682457E-1,-2.214245796E-1,8.299535283E-1
1.225951892E1,3.578834832E-1,-7.677927017E-1,-1.741390228E-1,8.648182581E-1
1.226960569E1,8.143526912E-1,-7.320475578E-1,-1.569852829E-1,1.106213502E0
1.227966377E1,7.945878506E-1,-7.146887779E-1,-1.688461304E-1,1.081969924E0
1.228952646E1,8.525937796E-1,-5.543761253E-1,-1.478981972E-1,1.027678412E0
1.230636238E1,7.543529868E-1,-4.161348343E-1,-3.185367584E-2,8.621086275E-1
1.230952423E1,7.473117113E-1,-4.136352539E-1,-3.349399567E-2,8.548045185E-1
1.231951954E1,7.338975668E-1,-3.987574577E-1,-4.337310791E-2,8.363578033E-1
1.232960831E1,7.286647558E-1,-3.241486549E-1,8.634567261E-3,7.975582942E-1
1.233953000E1,5.967491865E-1,-2.612657547E-1,-1.955032349E-4,6.514364316E-1
1.234959769E1,5.956109166E-1,-2.521438599E-1,-6.237030029E-3,6.468135671E-1
1.235952600E1,2.721328437E-1,-3.209161758E-2,-3.869361877E-1,4.741368684E-1
1.236953877E1,2.802599072E-1,-3.167724609E-2,-3.872871399E-1,4.791037385E-1
1.237951938E1,9.208960831E-2,1.404972076E-1,-7.115120888E-1,7.310741507E-1
1.238957877E1,1.057058498E-1,1.368808746E-1,-7.092061043E-1,7.299886293E-1
1.239955523E1,-6.710182130E-2,2.212133408E-1,-3.828334808E-1,4.472130036E-1
1.240966116E1,1.362155825E-1,2.326173782E-1,-3.324785233E-1,4.280274500E-1
1.241952192E1,1.468386799E-1,2.334518433E-1,-3.330526352E-1,4.324181065E-1
1.242954185E1,5.101054311E-1,1.395215988E-1,-3.407678604E-1,6.291236461E-1
1.243961162E1,5.165284276E-1,1.400089264E-1,-3.410892487E-1,6.346227159E-1
1.244963500E1,7.365922928E-1,1.803703308E-1,-1.569900513E-1,7.744336887E-1
1.245952823E1,7.401983142E-1,1.820569038E-1,-1.581029892E-1,7.784823799E-1
1.246952569E1,7.969825864E-1,2.887721062E-1,1.576805115E-2,8.478320610E-1
1.247959877E1,7.292858958E-1,3.589653969E-1,1.783304214E-1,8.321753500E-1
1.248952854E1,7.344374061E-1,3.605041504E-1,1.773281097E-1,8.371420455E-1
1.249959362E1,8.000833988E-1,4.084181786E-1,3.367471695E-1,9.593422277E-1
1.250952823E1,8.085088134E-1,4.082245827E-1,3.369131088E-1,9.663561735E-1
1.251964677E1,8.297097683E-1,4.714503288E-1,2.398262024E-1,9.839717067E-1
1.252959969E1,5.259322524E-1,5.383095741E-1,4.663333893E-1,8.853523376E-1
1.253956192E1,5.429404974E-1,5.345110893E-1,4.690074921E-1,8.946812371E-1
1.254951985E1,3.236774802E-1,5.904254913E-1,7.409553528E-1,1.001191394E0
1.255956077E1,3.520057797E-1,5.839290619E-1,7.456817627E-1,1.010407101E0
1.256960700E1,1.410878897E-1,6.306734085E-1,7.628984451E-1,9.998343755E-1
1.257951762E1,1.643562466E-1,6.220455170E-1,7.691287994E-1,1.002752567E0
1.258964492E1,9.028419852E-3,6.349973679E-1,8.252277374E-1,1.041299183E0
1.260006931E1,-7.475227118E-3,6.767253876E-1,8.556175232E-1,1.090914513E0
1.260952538E1,2.003556490E-2,6.585373878E-1,8.687334061E-1,1.090307592E0
1.261953677E1,5.096846819E-2,7.822465897E-1,8.793420792E-1,1.178028015E0
1.262954154E1,7.416561246E-2,7.604408264E-1,8.950729370E-1,1.176828939E0
1.263953562E1,6.434813142E-2,1.027272224E0,3.468666077E-1,1.086160830E0
1.264952146E1,1.931153387E-1,1.093708992E0,-3.669714928E-1,1.169684132E0
1.266054885E1,2.122806758E-1,1.062296391E0,-3.441796303E-1,1.136660162E0
1.266977677E1,-2.968090773E-1,6.104631424E-1,4.994363785E-1,8.427322070E-1
1.267952908E1,-2.718044221E-1,5.987930298E-1,5.089688301E-1,8.315527683E-1
1.269111923E1,-9.644297361E-1,2.925262451E-1,1.937682152E0,2.184103578E0
1.269971969E1,-9.422059655E-1,3.038053513E-1,1.931064606E0,2.170036932E0
1.270952392E1,-1.329750538E0,-1.454119682E-1,2.814759254E0,3.116448426E0
1.271952562E1,-1.479967356E0,-5.838146210E-1,2.920347214E0,3.325593291E0
1.272952300E1,-1.444946647E0,-5.397367477E-1,2.892575264E0,3.278136395E0
1.273996654E1,-1.423371077E0,-7.841386795E-1,2.505695343E0,2.986531072E0
1.274973146E1,-1.397772551E0,-7.424836159E-1,2.479703903E0,2.941765026E0
1.276012062E1,-1.176186085E0,-9.317402840E-1,1.742753029E0,2.299726458E0
1.276954977E1,-1.153727055E0,-8.975219727E-1,1.722071648E0,2.258796708E0
1.277953054E1,-9.179938436E-1,-1.094446659E0,9.071140289E-1,1.692153081E0
1.278955846E1,-8.608884811E-1,-1.109991074E0,7.824707031E-2,1.406887261E0
1.279952592E1,-8.405321836E-1,-1.097487450E0,7.201766968E-2,1.384254167E0
1.281000354E1,-6.293910742E-1,-8.730912209E-1,-9.908094406E-1,1.462916522E0
1.281955646E1,-6.112459302E-1,-8.750624657E-1,-9.877653122E-1,1.454316409E0
1.283093262E1,-3.772132397E-1,-6.941680908E-1,-1.301854610E0,1.522821261E0
1.283951792E1,-2.989165783E-1,-6.423611641E-1,-1.181173801E0,1.377370878E0
1.284951938E1,-2.754485011E-1,-6.480689049E-1,-1.175014019E0,1.369862448E0
1.286005954E1,-3.974391818E-1,-6.880245209E-1,-8.229718208E-1,1.143948540E0
1.286953169E1,-3.685942292E-1,-6.905965805E-1,-8.181128502E-1,1.132295888E0
1.287953108E1,-5.343604684E-1,-7.406902313E-1,-4.913764000E-1,1.037118072E0
1.288957869E1,-4.998663068E-1,-7.397937775E-1,-4.878878593E-1,1.017445685E0
1.289952254E1,-6.047644615E-1,-6.773238182E-1,-3.014459610E-1,9.567535085E-1
1.291521292E1,-7.326050997E-1,-6.291065216E-1,-4.845476151E-1,1.080403461E0
1.291994131E1,-7.074925900E-1,-6.280999184E-1,-4.818868637E-1,1.061729825E0
1.292957077E1,-6.481009722E-1,-5.730595589E-1,-7.668609619E-1,1.156074333E0
1.293952654E1,-6.201606989E-1,-5.735292435E-1,-7.626543045E-1,1.138058291E0
1.294968546E1,-4.659899473E-1,-5.545864105E-1,-9.389648438E-1,1.185903746E0
1.295952392E1,-4.482744932E-1,-5.506243706E-1,-9.389867783E-1,1.177214249E0
1.296954616E1,-3.618416786E-1,-5.267949104E-1,-8.228869438E-1,1.041914200E0
1.297952885E1,-1.855266094E-2,-5.104455948E-1,-6.175642014E-1,8.014265090E-1
1.298960954E1,-1.278018951E-2,-4.904012680E-1,-6.297378540E-1,7.982646815E-1
1.299957292E1,2.309143543E-2,-4.527945518E-1,-1.006126404E-2,4.534945971E-1
1.300961754E1,2.364456654E-2,-4.311337471E-1,-2.393054962E-2,4.324442676E-1
1.301953685E1,4.248192310E-1,-2.742524147E-1,3.605594635E-1,6.210385598E-1
1.303017985E1,3.428316712E-1,-4.636573792E-2,3.676071167E-1,5.047953335E-1
1.303953800E1,3.338406682E-1,-2.844238281E-2,3.549537659E-1,4.881093492E-1
1.304951500E1,3.007623553E-1,1.916980743E-1,6.924915314E-2,3.633202324E-1
1.305962585E1,2.943792939E-1,2.013459206E-1,6.227684021E-2,3.620466175E-1
1.306955138E1,2.284420729E-1,3.865365982E-1,-3.570532799E-1,5.736578833E-1
1.307965292E1,2.236295938E-1,3.883857727E-1,-3.588948250E-1,5.741595589E-1
1.308951477E1,1.588618755E-1,3.977704048E-1,-2.612018585E-1,5.016819723E-1
1.309952454E1,4.787468910E-2,5.066766739E-1,-2.870955467E-1,5.843261852E-1
1.310960216E1,4.216897488E-2,5.085945129E-1,-2.890934944E-1,5.865335877E-1
1.311951731E1,-1.750700474E-1,5.531144142E-1,2.033233643E-3,5.801630898E-1
1.312957931E1,-1.843137741E-1,5.602145195E-1,-3.680229187E-3,5.897672586E-1
1.313951985E1,-6.970465183E-2,5.824513435E-1,1.076889038E-2,5.867062937E-1
1.314953300E1,-7.956588268E-2,5.834584236E-1,8.793830872E-3,5.889242678E-1
1.316159938E1,-5.340099335E-3,5.825181007E-1,-2.773723602E-1,6.452063860E-1
1.316967677E1,2.484345436E-2,5.973563194E-1,-5.337934494E-1,8.014906214E-1
1.317952546E1,1.006329060E-2,5.908308029E-1,-5.316572189E-1,7.948847124E-1
1.318956131E1,2.162300944E-1,6.570682526E-1,-6.399927139E-1,9.423825211E-1
1.319958416E1,1.949216723E-1,6.477947235E-1,-6.368741989E-1,9.291077480E-1
1.320991669E1,2.140072584E-1,7.636599541E-1,-5.323457718E-1,9.551793825E-1
1.322023608E1,2.602008581E-1,8.302106857E-1,-4.516453743E-1,9.802743562E-1
1.322951823E1,2.371130586E-1,8.189034462E-1,-4.472374916E-1,9.627288459E-1
1.323995538E1,8.689713478E-2,8.375267982E-1,-3.481974602E-1,9.111771074E-1
1.324955485E1,6.900668144E-2,8.262820244E-1,-3.430800438E-1,8.973337296E-1
1.325988046E1,-1.492171288E-1,8.413248062E-1,-4.248714447E-2,8.555105718E-1
1.326959577E1,-1.659948230E-1,8.289852142E-1,-3.643226624E-2,8.462257835E-1
1.327962554E1,-2.285276651E-1,8.412466049E-1,1.139068604E-2,8.718087472E-1
1.329216277E1,-2.772892714E-1,8.163528442E-1,1.537179947E-1,8.757571171E-1
1.329953662E1,-2.980352044E-1,8.018417358E-1,1.609573364E-1,8.704495485E-1
1.331025546E1,-4.109176993E-1,8.220281601E-1,4.398136139E-1,1.018832502E0
1.331952438E1,-4.349182844E-1,8.072562218E-1,4.470787048E-1,1.020145034E0
1.332966377E1,-2.858992219E-1,8.909850121E-1,3.939609528E-1,1.015282172E0
1.333952100E1,-3.101658225E-1,8.737578392E-1,4.030141830E-1,1.010977760E0
1.334974823E1,-1.528591514E-1,1.074368477E0,6.150302887E-1,1.247355523E0
1.335952146E1,6.495732069E-2,1.314295292E0,1.059250832E0,1.689261345E0
1.336952054E1,3.210800886E-2,1.293816090E0,1.070191383E0,1.679375061E0
1.337987662E1,2.987878919E-1,1.601218224E0,9.895658493E-1,1.905889444E0
1.339045992E1,2.636519074E-1,1.579388618E0,1.001670837E0,1.888736404E0
1.339956292E1,2.379633188E-1,1.795409203E0,5.538463593E-1,1.893902462E0
1.340980669E1,1.272670925E-1,1.492767811E0,1.001891136E0,1.802314761E0
1.341989400E1,9.732583165E-2,1.479736328E0,1.008958817E0,1.793624769E0
1.343243854E1,2.025421113E-1,7.082748413E-1,2.310991287E0,2.425563293E0
1.343989116E1,1.706127077E-1,7.217869759E-1,2.300052643E0,2.416676911E0
1.344988792E1,7.178750038E-1,-9.553146362E-2,3.186367035E0,3.267629976E0
1.345951846E1,6.829581261E-1,-6.484174728E-2,3.164112091E0,3.237629006E0
1.346952062E1,8.386044502E-1,-5.103964806E-1,2.647577286E0,2.823725814E0
1.347951346E1,7.884026766E-1,-7.245912552E-1,1.397141457E0,1.760288476E0
1.348951931E1,7.518610954E-1,-7.166852951E-1,1.390739441E0,1.735825196E0
1.349951462E1,8.253560066E-1,-1.013651848E0,5.271015167E-1,1.409446209E0
1.350987885E1,7.926405668E-1,-1.017067909E0,5.285863876E-1,1.393595985E0
1.351959423E1,1.051911235E0,-1.183723927E0,2.124013901E-1,1.597759034E0
1.352952108E1,1.027336597E0,-1.193933010E0,2.187662125E-1,1.590206016E0
1.353958292E1,9.283185601E-1,-1.186050892E0,-1.647067070E-1,1.515130478E0
1.355017738E1,9.244816899E-1,-1.026615143E0,-6.528005600E-1,1.527990058E0
1.355957416E1,9.139651060E-1,-1.053596497E0,-6.347675323E-1,1.532425402E0
1.356951908E1,1.015350223E0,-1.000171661E0,-5.872907639E-1,1.541489497E0
1.358118154E1,1.006330132E0,-1.021541119E0,-5.728321075E-1,1.544144817E0
1.358963246E1,1.189608097E0,-1.015426159E0,-3.510365486E-1,1.602961125E0
1.359954292E1,8.834554553E-1,-8.398981094E-1,-4.980802536E-1,1.316816735E0
1.361073369E1,8.818418980E-1,-8.541803360E-1,-4.882411957E-1,1.321229974E0
1.361951554E1,5.432283878E-1,-7.208671570E-1,-6.007528305E-1,1.084274182E0
1.362989985E1,5.468779206E-1,-7.325363159E-1,-5.926246643E-1,1.089444311E0
1.363951785E1,3.072149754E-1,-7.174401283E-1,-3.477888107E-1,8.544345707E-1
1.364959569E1,3.106034696E-1,-7.205791473E-1,-3.455753326E-1,8.573978851E-1
1.366089962E1,4.462827146E-1,-7.583427429E-1,-2.524852753E-2,8.802780613E-1
1.366956177E1,4.498117864E-1,-7.085218430E-1,-4.463005066E-2,8.404318453E-1
1.368016946E1,4.416200817E-1,-7.006120682E-1,-5.017852783E-2,8.297008203E-1
1.368951531E1,5.041959882E-1,-6.507420540E-1,-2.619962692E-1,8.638986401E-1
1.369969585E1,4.920020998E-1,-6.434540749E-1,-2.670869827E-1,8.528978069E-1
1.370951354E1,7.626193166E-1,-5.569915771E-1,-5.258955956E-1,1.080922762E0
1.371951931E1,1.050993800E0,-5.664992332E-1,-4.776835442E-1,1.285959143E0
1.372951331E1,1.033393264E0,-5.604529381E-1,-4.818081856E-1,1.270491346E0
1.373954138E1,1.054969549E0,-4.745268822E-1,-4.248003960E-1,1.232311603E0
1.374953423E1,1.039602757E0,-4.676671028E-1,-4.294085503E-1,1.218145358E0
1.376117931E1,1.172736287E0,-3.647971153E-1,-4.492969513E-1,1.307767214E0
1.376989108E1,1.157535553E0,-3.594083786E-1,-4.528255463E-1,1.293875541E0
1.378021238E1,1.149823546E0,-2.554135323E-1,-3.280715942E-1,1.222686072E0
1.378951623E1,8.312049508E-1,-4.951810837E-2,-6.422352791E-1,1.051579701E0
1.379952669E1,8.274688125E-1,-4.922056198E-2,-6.423840523E-1,1.048706141E0
1.381094162E1,5.387813449E-1,1.698222160E-1,-9.923982620E-1,1.141919101E0
1.381974731E1,5.432528257E-1,1.657695770E-1,-9.896907806E-1,1.141092032E0
1.383045762E1,3.534824252E-1,2.614021301E-1,-9.104952812E-1,1.011079896E0
1.383951362E1,3.633187115E-1,2.584939003E-1,-9.086260796E-1,1.012136816E0
1.384957662E1,4.547148347E-1,2.950849533E-1,-4.694943428E-1,7.171231753E-1
1.385951777E1,6.754556894E-1,3.439111710E-1,-3.284974098E-1,8.260906912E-1
1.386951608E1,6.788401008E-1,3.457040787E-1,-3.297572136E-1,8.301054224E-1
1.387960000E1,4.811021686E-1,4.665884972E-1,-4.830913544E-1,8.261606254E-1
1.388951338E1,4.854506254E-1,4.640140533E-1,-4.813642502E-1,8.262462664E-1
1.390051323E1,5.475050211E-1,5.897488594E-1,-8.678145409E-1,1.183498011E0
1.390952454E1,8.475368023E-1,5.494809151E-1,-8.105516434E-1,1.295083732E0
1.391973592E1,8.553819656E-1,5.451831818E-1,-8.076400757E-1,1.296605376E0
1.392956438E1,8.086214662E-1,5.213060379E-1,-1.884508133E-1,9.803786869E-1
1.393952669E1,8.131203651E-1,5.224604607E-1,-1.892585754E-1,9.848596192E-1
1.394956692E1,8.037378788E-1,5.261306763E-1,1.858291626E-1,9.784378079E-1
1.395955838E1,8.114629984E-1,5.323562622E-1,1.815500259E-1,9.873377333E-1
1.396951885E1,4.542463422E-1,7.508912086E-1,9.149456024E-2,8.823540112E-1
1.397956692E1,2.698771656E-1,9.918594360E-1,-1.467266083E-1,1.038338829E0
1.398958223E1,2.861673534E-1,9.844923019E-1,-1.416206360E-1,1.034975000E0
1.399953138E1,3.054628372E-1,1.172678947E0,-4.351005554E-1,1.287554252E0
1.400952708E1,3.222305775E-1,1.161901951E0,-4.275474548E-1,1.279314471E0
1.401955092E1,1.508313268E-1,1.175137997E0,-2.566304207E-1,1.212253510E0
1.402951462E1,1.676753461E-1,1.166487694E0,-2.504401207E-1,1.204794097E0
1.403955692E1,1.278998107E-1,1.171288490E0,5.953626633E-1,1.320125672E0
1.404955877E1,1.720783114E-1,1.214852810E0,1.136458397E0,1.672428170E0
1.405952116E1,1.865905225E-1,1.214613438E0,1.136878014E0,1.674094813E0
1.406954485E1,3.555767238E-2,1.204968929E0,1.357368469E0,1.815396274E0
1.407973216E1,5.504676700E-2,1.200335979E0,1.361012459E0,1.815541661E0
1.408952762E1,-2.233279794E-1,1.202023983E0,1.471455574E0,1.913091359E0
1.409951585E1,2.489111274E-1,1.278988838E0,1.140901566E0,1.731884979E0
1.410951554E1,2.732634842E-1,1.256980896E0,1.157094002E0,1.730185087E0
1.411953408E1,5.895527601E-1,1.315821171E0,4.412870407E-1,1.507876674E0
1.413095377E1,6.038491726E-1,1.286555290E0,4.626240730E-1,1.494616797E0
1.414018816E1,7.956312895E-1,1.096235752E0,-4.424657822E-1,1.424969453E0
1.414952492E1,7.998945713E-1,1.072628498E0,-4.252438545E-1,1.403992719E0
1.415990585E1,3.343245685E-1,3.477149010E-1,3.029713631E-1,5.696228720E-1
1.416951846E1,-5.550080538E-1,-4.660148621E-1,2.593606949E0,2.692953917E0
1.417952477E1,-5.372556448E-1,-4.241523743E-1,2.564366817E0,2.654152603E0
1.418953900E1,-1.210589647E0,-1.084937572E0,4.197477341E0,4.501270138E0
1.419956923E1,-1.173426867E0,-1.020864010E0,4.154797554E0,4.436376523E0
1.420952392E1,-2.184749126E0,-1.230413914E0,3.395293236E0,4.220789417E0
1.422015762E1,-2.348554134E0,-1.044345379E0,1.328429222E0,2.893283254E0
1.423118192E1,-2.305980921E0,-1.027408123E0,1.319964409E0,2.848757887E0
1.423955392E1,-1.747094393E0,-6.881108284E-1,-9.518580437E-1,2.105200481E0
1.425067208E1,-1.734112859E0,-6.946897507E-1,-9.464783669E-1,2.094173478E0
1.425988969E1,-1.078883767E0,-6.525378227E-1,-9.846525192E-1,1.599792604E0
1.426988492E1,-1.079714417E0,-6.552753448E-1,-9.828805923E-1,1.600382223E0
1.427953200E1,-6.641114950E-1,-6.536231041E-1,-4.697661400E-1,1.043526457E0
1.428955738E1,-2.715972066E-1,-4.899234772E-1,-6.610283852E-1,8.664574901E-1
1.429957092E1,-2.615628242E-1,-4.863643646E-1,-6.626410484E-1,8.625882942E-1
1.430951377E1,9.631162882E-2,-4.410572052E-1,-3.819880486E-1,5.913731963E-1
1.431953300E1,1.079753637E-1,-4.389352798E-1,-3.824858665E-1,5.921303042E-1
1.432951231E1,-5.365705490E-2,-3.407211304E-1,-8.364772797E-2,3.549181745E-1
1.433953692E1,-3.429412842E-2,-3.392825127E-1,-8.300685883E-2,3.509684448E-1
1.434977462E1,-5.391950011E-1,-2.216567993E-1,-1.644868851E-1,6.057383274E-1
1.435952008E1,-9.069921374E-1,-2.020282745E-1,-1.315355301E-1,9.384837541E-1
1.436952054E1,-8.652142286E-1,-2.060513496E-1,-1.248569489E-1,8.981325502E-1
1.437952562E1,-1.151854515E0,-2.022395134E-1,7.577037811E-2,1.171926105E0
1.438980116E1,-1.108789444E0,-2.041912079E-1,8.163928986E-2,1.130386241E0
1.439952054E1,-1.016771197E0,-1.620554924E-1,5.596828461E-2,1.031124677E0
1.440952862E1,-9.959620833E-1,-1.618747711E-1,5.819034576E-2,1.010707687E0
1.442041392E1,-6.043724418E-1,-1.416978836E-1,-5.050425529E-1,8.002576578E-1
1.442952138E1,-1.824952960E-1,-2.410850525E-1,-8.213152885E-1,8.752058837E-1
1.443952977E1,-1.874430776E-1,-2.485866547E-1,-8.168215752E-1,8.741439915E-1
1.444953385E1,1.687974334E-1,-3.786811829E-1,-1.068346977E0,1.145974378E0
1.445968077E1,1.589992046E-1,-3.868498802E-1,-1.063918114E0,1.143177733E0
1.446972600E1,4.125328958E-1,-4.004907608E-1,-1.429762840E0,1.541037968E0
1.447952769E1,7.129504681E-1,-4.289393425E-1,-1.257615089E0,1.507940000E0
1.448957608E1,6.946295500E-1,-4.344401360E-1,-1.255838394E0,1.499459408E0
1.449962131E1,7.118904591E-1,-3.628959656E-1,-9.172363281E-1,1.216471943E0
1.450978162E1,6.892724633E-1,-3.618707657E-1,-9.202480316E-1,1.205364434E0
1.451990254E1,6.669316292E-1,-2.097954750E-1,-7.650771141E-1,1.036414459E0
1.452956654E1,6.424254179E-1,-2.066879272E-1,-7.695488930E-1,1.023540823E0
1.453956577E1,5.571561456E-1,-4.613828659E-2,-9.949517250E-1,1.141262742E0
1.454952454E1,3.458645940E-1,1.156005859E-1,-1.221903324E0,1.275160204E0
1.455951885E1,3.346854448E-1,1.124229431E-1,-1.220743656E0,1.270774700E0
1.456951562E1,6.255626678E-3,2.385654449E-1,-1.012224674E0,1.039976632E0
1.457953492E1,-2.056717873E-3,2.381033897E-1,-1.012636662E0,1.040254999E0
1.458958969E1,-2.493860722E-1,2.385144234E-1,-6.285929680E-1,7.170855336E-1
1.460038100E1,-2.241582870E-1,2.246179581E-1,-3.311700821E-1,4.586652243E-1
1.460953438E1,-2.343581915E-1,2.333254814E-1,-3.379354477E-1,4.728265105E-1
1.461953600E1,-2.245123386E-1,3.134865761E-1,-3.142986298E-1,4.974567843E-1
1.462951823E1,-2.350964546E-1,3.201379776E-1,-3.196535110E-1,5.098402052E-1
1.463951823E1,-1.435794234E-1,4.135384560E-1,-4.416179657E-1,6.218163177E-1
1.464991154E1,-1.566350460E-1,4.162397385E-1,-4.444618225E-1,6.287577985E-1
1.466015462E1,-1.939712763E-1,5.112199783E-1,-4.294734001E-1,6.952827653E-1
1.466953538E1,-2.842229605E-1,6.941809654E-1,-4.667701721E-1,8.834841807E-1
1.467953769E1,-2.962557673E-1,6.914744377E-1,-4.658336639E-1,8.848194054E-1
1.468955131E1,-3.677581549E-1,8.379440308E-1,-4.386105537E-1,1.014778536E0
1.469951892E1,-3.794996142E-1,8.329668045E-1,-4.360833168E-1,1.013914352E0
1.470952216E1,-4.157077074E-1,9.312052727E-1,-2.077136040E-1,1.040721432E0
1.471951562E1,-4.274346232E-1,9.264235497E-1,-2.052750587E-1,1.040720328E0
1.472968677E1,-4.272351265E-1,9.984164238E-1,5.645656586E-2,1.087452322E0
1.473952492E1,-4.656701684E-1,1.018881321E0,1.909217834E-1,1.136406168E0
1.475095023E1,-4.817377031E-1,1.013761044E0,1.933889389E-1,1.138938958E0
1.475986762E1,-4.260973334E-1,1.008159637E0,6.851053238E-1,1.291245173E0
1.476951485E1,-4.442592561E-1,1.005465984E0,6.858758926E-1,1.295667346E0
1.477952831E1,-3.132489324E-1,1.040782452E0,1.065845490E0,1.522294194E0
1.478952800E1,-2.191570103E-1,1.075991631E0,1.276790619E0,1.684037431E0
1.480028008E1,-2.448447645E-1,1.071393967E0,1.278631210E0,1.686040261E0
1.480952962E1,-1.345664263E-2,1.336429119E0,1.158454895E0,1.768683583E0
1.481951416E1,-4.135623574E-2,1.325501919E0,1.164737701E0,1.765015464E0
1.482954469E1,3.110670745E-1,1.615705013E0,6.313838959E-1,1.762359509E0
1.483955977E1,2.757634819E-1,1.595966816E0,6.438207626E-1,1.742888622E0
1.484953446E1,7.933032513E-1,1.779970169E0,-2.496848106E-1,1.964679708E0
1.485952916E1,3.505240083E-1,1.371140957E0,2.156906128E-1,1.431578515E0
1.486951492E1,3.242484927E-1,1.360527039E0,2.226161957E-1,1.416237578E0
1.488011654E1,-2.434194237E-1,5.073990822E-1,2.771127701E0,2.827694393E0
1.488968500E1,-2.539216578E-1,5.366554260E-1,2.750601768E0,2.813944801E0
1.490027692E1,-3.614533544E-1,-3.710145950E-1,4.190080643E0,4.221975385E0
1.490951716E1,-3.651031554E-1,-3.204841614E-1,4.155728340E0,4.184027778E0
1.491956038E1,-2.655176222E-1,-8.548913002E-1,3.811382294E0,3.915095622E0
1.492951662E1,-7.012613118E-3,-5.906043053E-1,9.667692184E-1,1.132918949E0
1.493956600E1,-3.204723820E-2,-5.909037590E-1,9.667463303E-1,1.133486985E0
1.494952469E1,1.190136820E-1,-5.110588074E-1,-9.419956207E-1,1.078286191E0
1.495965154E1,9.212541580E-2,-5.329666138E-1,-9.274625778E-1,1.073651404E0
1.496953746E1,3.652994335E-1,-7.332162857E-1,-8.098888397E-1,1.151941722E0
1.497953623E1,7.699215412E-1,-1.020478725E0,-6.854915619E-2,1.280177720E0
1.498953992E1,7.441000342E-1,-1.020456314E0,-6.838035583E-2,1.264789241E0
1.499956223E1,1.051378012E0,-1.117525578E0,1.556205750E-1,1.542231145E0
1.500952969E1,1.022651792E0,-1.111779213E0,1.521568298E-1,1.518229695E0
1.501959808E1,1.077415347E0,-1.028053761E0,-2.201218605E-1,1.505381014E0
1.502983638E1,1.050885916E0,-1.025490284E0,-2.212805748E-1,1.484909635E0
1.503952962E1,1.154532552E0,-9.305200577E-1,-6.556158066E-1,1.621309679E0
1.504955146E1,1.033414483E0,-1.004031658E0,-1.915907860E-1,1.453524026E0
1.506041662E1,1.014024973E0,-9.969701767E-1,-1.957373619E-1,1.435447419E0
1.507346169E1,6.640732288E-1,-9.608974457E-1,2.646398544E-1,1.197644107E0
1.507957269E1,6.528002620E-1,-9.459381104E-1,2.550516129E-1,1.177284339E0
1.508952138E1,2.217290699E-1,-7.831048965E-1,3.483829498E-1,8.853178747E-1
1.509957977E1,2.187940180E-1,-7.680201530E-1,3.385124207E-1,8.673617681E-1
1.510953238E1,6.548738480E-2,-6.196122169E-1,1.852159500E-1,6.500098808E-1
1.511952423E1,-2.350630462E-1,-3.520264626E-1,-2.686476707E-1,5.013470226E-1
1.512953154E1,-2.261786163E-1,-3.493947983E-1,-2.706770897E-1,4.964872389E-1
1.513951816E1,-1.391918361E-1,-2.163829803E-1,-5.889153481E-1,6.426641803E-1
1.514952969E1,-1.333287954E-1,-2.166590691E-1,-5.889220238E-1,6.415191891E-1
1.515954462E1,3.614423573E-1,-2.182836533E-1,-5.897221565E-1,7.253003191E-1
1.516966608E1,7.792091966E-1,-3.565812111E-1,-4.144392014E-1,9.518807613E-1
1.517952946E1,7.651392221E-1,-3.488488197E-1,-4.190216064E-1,9.395278788E-1
1.518978816E1,9.465812445E-1,-2.951140404E-1,-6.408619881E-1,1.180598339E0
1.520129269E1,9.346745610E-1,-2.899279594E-1,-6.437983513E-1,1.171388524E0
1.520955054E1,8.939421177E-1,-2.625255585E-1,-8.246359825E-1,1.244217297E0
1.521954231E1,8.864150643E-1,-2.599921227E-1,-8.259844780E-1,1.239184380E0
1.522975662E1,6.548506021E-1,-1.945047379E-1,-6.248836517E-1,9.258190873E-1
1.523989131E1,5.807654858E-1,-1.033864021E-1,-5.085587502E-1,7.788512695E-1
1.524976077E1,5.853419304E-1,-9.708499908E-2,-5.128359795E-1,7.842521370E-1
1.525963816E1,5.890495181E-1,2.737045288E-2,-6.466155052E-1,8.751228988E-1
1.526955916E1,5.961893797E-1,2.927303314E-2,-6.481280327E-1,8.811178319E-1
1.527954631E1,5.640382767E-1,1.956162453E-1,-7.450394630E-1,9.547191705E-1
1.528952677E1,5.743095875E-1,1.944193840E-1,-7.446436882E-1,9.602732015E-1
1.529956377E1,5.853706002E-1,3.099584579E-1,-8.328623772E-1,1.064139429E0
1.530952692E1,6.042751670E-1,3.472018242E-1,-6.475119591E-1,9.512987550E-1
1.531952200E1,6.176964045E-1,3.456435204E-1,-6.469330788E-1,9.589268479E-1
1.532953992E1,6.158402562E-1,3.801670074E-1,-4.246778488E-1,8.391289829E-1
1.533992354E1,6.289377213E-1,3.819127083E-1,-4.261922836E-1,8.503292519E-1
1.534967823E1,6.239739060E-1,3.988866806E-1,-6.345462799E-2,7.432903263E-1
1.535953985E1,6.925043464E-1,4.897942543E-1,1.757106781E-1,8.662187505E-1
1.536951938E1,7.042843699E-1,4.915852547E-1,1.742591858E-1,8.763782290E-1
1.537975100E1,9.180801511E-1,6.164360046E-1,3.012657166E-2,1.106242343E0
1.538973823E1,9.268564582E-1,6.135764122E-1,3.178405762E-2,1.112002308E0
1.540046085E1,7.381262779E-1,7.053394318E-1,7.329177856E-2,1.023575010E0
1.541159892E1,4.934521019E-1,9.428906441E-1,-1.925001144E-1,1.081477710E0
1.541961746E1,5.117752552E-1,9.321322441E-1,-1.858167648E-1,1.079496319E0
1.542978700E1,2.947783470E-1,1.064875126E0,-1.507711411E-1,1.115161533E0
1.544013223E1,3.177099228E-1,1.052902222E0,-1.432180405E-1,1.109078036E0
1.544962031E1,1.171571016E-2,1.108067989E0,2.909908295E-1,1.145699607E0
1.545952138E1,3.787290677E-2,1.099402905E0,2.965259552E-1,1.139319422E0
1.546954385E1,1.437858641E-1,1.123885632E0,7.037477493E-1,1.333811899E0
1.547958454E1,1.647854596E-1,1.116990566E0,7.082862854E-1,1.332850942E0
1.548951869E1,1.662613600E-1,1.207683563E0,9.204816818E-1,1.527556531E0
1.549955638E1,3.625500202E-2,1.432790279E0,8.504657745E-1,1.666581664E0
1.551041416E1,5.934426934E-2,1.415325642E0,8.622684479E-1,1.658365246E0
1.551957308E1,8.501556516E-2,1.701959610E0,6.691627502E-1,1.830757479E0
1.552952100E1,1.089250967E-1,1.676976204E0,6.863231659E-1,1.815255727E0
1.553952377E1,4.969345033E-1,1.948606491E0,-1.210899353E-1,2.014615082E0
1.554952085E1,4.224369824E-1,1.551134586E0,-4.730892181E-2,1.608325105E0
1.555974308E1,4.304610193E-1,1.533361912E0,-3.490257263E-2,1.593020286E0
1.556991938E1,-1.188640296E-1,6.977901459E-1,1.223225594E0,1.413265933E0
1.557958800E1,-9.814126790E-2,7.090706825E-1,1.215885162E0,1.410953461E0
1.558973616E1,-8.520799875E-1,-1.991653442E-2,2.806929588E0,2.933477576E0
1.559952200E1,-8.203383684E-1,2.030420303E-2,2.780494690E0,2.899054677E0
1.560952292E1,-1.352032185E0,-5.710597038E-1,3.750435829E0,4.027389865E0
1.561955516E1,-1.546337843E0,-7.695717812E-1,2.983981133E0,3.447831906E0
1.562970631E1,-1.507506371E0,-7.266511917E-1,2.957613945E0,3.398246262E0
1.563957185E1,-1.250708103E0,-7.380061150E-1,1.148447990E0,1.851447156E0
1.564952477E1,-1.222049236E0,-7.237262726E-1,1.140697479E0,1.821640687E0
1.566023723E1,-9.904296398E-1,-6.661620140E-1,-5.040917397E-1,1.295697180E0
1.566953708E1,-9.715757370E-1,-6.729998589E-1,-1.264628410E0,1.730945764E0
1.567955746E1,-9.279892445E-1,-5.275287628E-1,-1.269565105E0,1.658688093E0
1.568951938E1,-4.778257906E-1,-5.124788284E-1,-1.034050465E0,1.249084625E0
1.569953338E1,-4.669873118E-1,-5.140490532E-1,-1.032369137E0,1.244230531E0
1.570951823E1,-4.255428910E-1,-4.462566376E-1,-3.893933296E-1,7.292865718E-1
1.571958969E1,-4.110208154E-1,-4.411964417E-1,-3.917288780E-1,7.190576644E-1
1.572955108E1,-3.697113395E-1,-3.826556206E-1,-2.713093758E-1,5.972608943E-1
1.573952869E1,-4.946473837E-1,-3.016266823E-1,-2.354536057E-1,6.253743599E-1
1.574956662E1,-4.695458412E-1,-3.005447388E-1,-2.343473434E-1,6.047471491E-1
1.576122708E1,-9.551712275E-1,-1.798706055E-1,-9.142112732E-2,9.762496253E-1
1.576954523E1,-9.224746227E-1,-1.796116829E-1,-8.899974823E-2,9.440025113E-1
1.577952862E1,-1.158017159E0,-1.560387611E-1,-2.077674866E-1,1.186810500E0
1.578951569E1,-1.122517347E0,-1.564927101E-1,-2.043609619E-1,1.151650366E0
1.579953023E1,-1.198954821E0,-1.981663704E-1,-3.876743317E-1,1.275560253E0
1.580981916E1,-1.061548471E0,-2.804908752E-1,-3.912034035E-1,1.165590147E0
1.582147285E1,-1.040943861E0,-2.771453857E-1,-3.913273811E-1,1.146084991E0
1.582951823E1,-6.420184374E-1,-2.855014801E-1,-5.807309151E-1,9.115630339E-1
1.583952400E1,-6.337860227E-1,-2.826747894E-1,-5.817122459E-1,9.055268611E-1
1.584952162E1,-4.733775854E-1,-2.553191185E-1,-1.022741318E0,1.155540563E0
1.585974162E1,-1.541531682E-1,-2.634396553E-1,-1.370603085E0,1.404178218E0
1.587027092E1,-1.546347141E-1,-2.668652534E-1,-1.368441105E0,1.402768696E0
1.588066716E1,2.166379094E-1,-2.076430321E-1,-1.319386005E0,1.353080576E0
1.589182323E1,2.093901634E-1,-2.075276375E-1,-1.320202351E0,1.352718081E0
1.589951669E1,2.926710248E-1,-1.089649200E-1,-9.928441048E-1,1.040802142E0
1.590952377E1,2.808583975E-1,-1.036777496E-1,-9.974379539E-1,1.041399533E0
1.591952454E1,2.137413621E-1,7.271671295E-2,-8.350100517E-1,8.649941484E-1
1.593056685E1,3.296437263E-1,2.637972832E-1,-9.915494919E-1,1.077694014E0
1.593974562E1,3.208382130E-1,2.656898499E-1,-9.936084747E-1,1.077397817E0
1.594967877E1,8.549988270E-3,4.046187401E-1,-1.108494759E0,1.180063582E0
1.595953708E1,7.010102272E-3,4.028539658E-1,-1.107506752E0,1.178520965E0
1.596953862E1,-2.053455710E-1,4.278578758E-1,-7.640910149E-1,8.994799856E-1
1.597955131E1,-2.040035725E-1,4.303197861E-1,-7.655453682E-1,9.015832111E-1
1.598952185E1,-5.556531549E-1,4.583716393E-1,-4.923028946E-1,8.724775803E-1
1.599952731E1,-6.503726840E-1,3.886632919E-1,-2.163972855E-1,7.879540391E-1
1.600970331E1,-6.531016827E-1,3.963766098E-1,-2.215890884E-1,7.954608405E-1
1.601990985E1,-4.714919329E-1,3.519434929E-1,1.547060013E-1,6.083607579E-1
1.602953362E1,-4.801585674E-1,3.607459068E-1,1.482954025E-1,6.186124680E-1
1.603951923E1,-2.836653590E-1,4.355511665E-1,-2.841811180E-1,5.923932498E-1
1.604964908E1,-3.682908416E-1,5.923447609E-1,-5.865616798E-1,9.113534243E-1
1.606012416E1,-3.802307844E-1,5.872230530E-1,-5.843739510E-1,9.115367672E-1
1.606965469E1,-2.492002249E-1,7.299537659E-1,-6.636123657E-1,1.017504115E0
1.607952023E1,-2.646072507E-1,7.230863571E-1,-6.605615616E-1,1.014501086E0
1.608991639E1,-2.046808600E-1,8.290696144E-1,-7.762403488E-1,1.154036290E0
1.610030116E1,-2.228459120E-1,8.194112778E-1,-7.715482712E-1,1.147336863E0
1.610952285E1,-3.302381635E-1,9.278597832E-1,-7.007737160E-1,1.208745144E0
1.611953200E1,-5.581971407E-1,9.921531677E-1,-1.270380020E-1,1.145465237E0
1.612953531E1,-5.664123297E-1,9.834380150E-1,-1.220588684E-1,1.141434021E0
